File: examples/example6/copper7.uxd
; (content of file: C:\Users\usmial\AppData\Local\Microsoft\Windows\INetCache\Content.Outlook\85Y1ATVD\Poudre Cu et etalon inco 01-06-21.stx, Point: Poudre Cu)
_FILEVERSION = 2
_SAMPLE = Poudre Cu et etalon inco 01-06-21
_+SAMPLE = "Poudre Cu et etalon inco 01-06-21, Poudre Cu"
_SITE =
_USER =
_GONIOMETER_CODE = 9999
; Goniometer: StressDiff, stage: Unknown
_GONIOMETER_RADIUS = 130.000
_ATTACHMENTS_CODE = 0
_BETA_FILTER = Y
_WL_UNIT = A
_WL1 = 2.10187
_WL2 = 2.10583
_WLRATIO = 0.500
_ANODE = Mn

; Data for Point: Poudre Cu, Direction: Direction 7
_DRIVE = 2THETA
_STEPTIME = 60.00
_STEPSIZE = 0.0220
_STEPMODE = S
_START = 137.894
_THETA = 76.000
_2THETA = 137.894
_KHI = 0.000
_PHI = 90.000
_X = -94.693
_Y = -392.395
_Z = -42.780
_VARDIVERGENCE = Unkn
_VARANTISCATTER = 9999
_DETECTOR = 0
; Detector type : Unknown
_DETECTORSLIT = out
_AUX1 = 0
_AUX2 = 0
_AUX3 = 0
_TEMP_RATE = -1
_TEMP_DELAY = -1
_KV = 20.00
_MA = 1.00
_RANGE_WL = 2.10187
_3DPLANE = 0
_V4_COUNTERS_MASK = 4096
_V4_DRIVES_MASK = 0
_V4_ENCODERS_MASK = 0
_COUNTS = 1
; PSD
      312
      378
      329
      321
      324
      322
      334
      321
      326
      340
      299
      309
      336
      269
      320
      324
      310
      300
      301
      301
      314
      313
      363
      315
      338
      344
      323
      362
      359
      355
      353
      342
      329
      328
      303
      356
      324
      332
      341
      300
      321
      305
      324
      334
      353
      385
      342
      321
      313
      309
      308
      323
      310
      333
      351
      309
      327
      341
      331
      362
      318
      297
      342
      352
      326
      337
      338
      320
      310
      311
      356
      310
      297
      372
      326
      328
      288
      340
      333
      338
      330
      317
      350
      334
      317
      333
      356
      309
      342
      334
      335
      322
      325
      331
      351
      324
      324
      363
      314
      317
      366
      329
      353
      339
      354
      321
      357
      303
      325
      330
      312
      356
      343
      333
      367
      382
      331
      329
      343
      331
      354
      340
      300
      306
      318
      302
      324
      336
      341
      331
      356
      311
      334
      366
      315
      316
      337
      337
      344
      382
      352
      357
      348
      330
      313
      342
      356
      361
      338
      330
      373
      335
      335
      339
      346
      327
      329
      345
      345
      314
      331
      334
      364
      332
      350
      365
      346
      338
      332
      315
      273
      347
      312
      347
      350
      344
      307
      341
      374
      351
      384
      336
      314
      327
      345
      360
      358
      355
      365
      347
      348
      315
      336
      307
      346
      342
      363
      339
      338
      321
      340
      310
      351
      348
      351
      347
      304
      340
      293
      317
      354
      334
      359
      349
      328
      313
      304
      310
      326
      346
      355
      328
      312
      313
      355
      323
      292
      341
      362
      364
      318
      338
      327
      329
      323
      331
      330
      299
      313
      365
      341
      317
      341
      315
      350
      333
      327
      312
      332
      403
      295
      330
      350
      327
      343
      387
      326
      338
      333
      349
      348
      344
      305
      365
      354
      340
      336
      351
      351
      347
      377
      340
      374
      326
      369
      362
      366
      318
      344
      372
      331
      341
      361
      358
      365
      389
      354
      349
      374
      355
      329
      348
      377
      348
      370
      389
      366
      360
      363
      326
      385
      322
      348
      382
      339
      359
      357
      357
      394
      381
      353
      334
      339
      343
      345
      341
      373
      330
      377
      383
      361
      378
      369
      351
      337
      354
      356
      368
      367
      374
      384
      358
      351
      350
      377
      343
      329
      337
      352
      345
      373
      378
      347
      357
      320
      346
      405
      370
      331
      367
      362
      368
      349
      358
      365
      368
      377
      328
      391
      370
      352
      386
      381
      361
      387
      367
      385
      366
      385
      367
      348
      344
      402
      368
      369
      364
      377
      360
      365
      400
      407
      381
      385
      389
      400
      414
      391
      363
      395
      394
      355
      383
      411
      393
      423
      402
      416
      381
      409
      386
      430
      412
      408
      428
      446
      402
      388
      381
      407
      426
      361
      378
      392
      411
      385
      381
      416
      397
      415
      421
      413
      403
      445
      397
      447
      428
      420
      370
      416
      412
      413
      429
      403
      468
      467
      384
      430
      397
      442
      429
      431
      426
      435
      447
      509
      461
      432
      527
      436
      463
      515
      475
      455
      479
      483
      478
      506
      473
      482
      525
      489
      490
      485
      529
      560
      474
      565
      546
      525
      584
      588
      596
      624
      578
      621
      651
      621
      644
      616
      664
      699
      712
      709
      741
      710
      779
      825
      821
      771
      886
      868
      893
      968
      911
      988
     1094
     1049
     1036
     1072
     1189
     1219
     1107
     1182
      971
     1248
     1211
     1156
     1157
     1290
     1322
     1168
     1230
     1324
     1282
     1369
     1250
     1324
     1244
     1204
     1112
     1075
     1254
     1147
     1131
     1164
     1156
     1052
     1258
      938
     1039
      980
     1032
     1091
      951
     1038
     1050
     1024
      931
      996
     1094
     1066
      959
     1040
      963
     1024
      980
     1050
      981
      995
      894
      950
      796
      844
      804
      791
      776
      760
      762
      796
      737
      749
      744
      726
      708
      677
      710
      676
      622
      608
      589
      580
      558
      616
      584
      585
      569
      572
      508
      542
      547
      584
      537
      538
      529
      481
      548
      527
      498
      509
      443
      488
      484
      516
      473
      469
      470
      471
      449
      490
      473
      460
      435
      460
      441
      456
      501
      421
      451
      459
      446
      426
      416
      446
      455
      427
      431
      440
      449
      417
      390
      424
      444
      451
      387
      435
      380
      430
      363
      386
      433
      416
      399
      400
      421
      429
      409
      390
      406
      417
      377
      398
      419
      436
      407
      429
      434
      395
      395
      432
      495
      376
      410
      393
      417
      447
      423
      368
      427
      380
      422
      405
      385
      424
      454
      390
      365
      411
      406
      358
      403
      419
      398
      395
      401
      362
      390
      367
      376
      409
      397
      370
      393
      437
      376
      394
      396
      392
      403
      400
      398
      369
      415
      413
      403
      395
      405
      375
      371
      399
      367
      367
      383
      377
      350
      376
      387
      416
      384
      387
      371
      391
      352
      414
      383
      394
      389
      409
      402
      369
      391
      376
      366
      382
      404
      359
      414
      386
      381
      418
      404
      373
      364
      340
      395
      366
      372
      350
      373
      388
      397
      384
      394
      393
      384
      374
      384
      343
      373
      380
      364
      384
      354
      383
      381
      413
      359
      415
      369
      380
      334
      393
      348
      344
      398
      361
      358
      379
      396
      401
      410
      364
      375
      432
      413
      391
      383
      422
      387
      387
      450
      388
      415
      398
      405
      395
      414
      401
      399
      446
      399
      409
      399
      405
      405
      443
      413
      377
      370
      438
      410
      419
      405
      391
      400
      387
      420
      410
      406
      419
      411
      389
      401
      437
      428
      374
      436
      373
      430
      414
      382
      433
      415
      428
      400
      414
      422
      430
      383
      440
      402
      404
      416
      395
      404
      400
      433
      391
      416
      416
      395
      404
      403
      424
      396
      373
      393
      432
      396
      381
      396
      413
      424
      362
      363
      403
      405
      423
      385
      400
      432
      382
      416
      424
      378
      408
      399
      403
      394
      393
      423
      416
      397
      404
      382
      415
      404
      431
      364
      424
      421
      398
      399
      417
      364
      412
      392
      410
      393
      379
      372
      398
      399
      435
      398
      415
      367
      367
      399
      419
      410
      413
      416
      444
      387
      435
      436
      443
      446
      440
      407
      401
      468
      425
      388
      419
      409
      421
      423
      399
      419
      421
      420
      414
      393
      401
      398
      380
      432
      444
      448
      416
      426
      440
      444
      377
      422
      423
      388
      425
      413
      393
      404
      398
      401
      430
      403
      396
      440
      386
      379
      392
      391
      407
      408
      385
      386
      397
      411
      426
      407
      419
      444
      439
      390
      396
      440
      392
      375
      369
      378
      377
      469
      393
      393
      409
      413
      401
      396
      360
      391
      426
      409
      387
      426
      401
      401
      449
      422
      385
      398
      391
      405
      424
      457
      421
      406
      428
      442
      425
      373
      364
      434
      386
      446
      393
      397
      420
      412
      391
      387
      410
      405
      402
      435
      415
      399
      438
      416
      380
      416
      395
      403
      400
      376
      412
      401
      439
      413
      426
      414
      386
      403
      381
      444
      424
      413
      400
      374
      371
      409
      428
      424
      431
      426
      446
      380
      421
      417
      395
      408
      436
      400
      423
      387
      426
      404
      380
      365
      422
      422
      442
      415
      401
      392
      459
      415
      418
      413
      403
      395
      400
      396
      418
      415
      410
      429
      453
      430
      395
      441
      399
      410
      417
      406
      461
      426
      422
      378
      390
      403
      435
      409
      443
      396
      442
      396
      418
      374
      418
      408
      415
      425
      443
      412
      370
      417
      425
      403
      402
      411
      406
      368
      431
      419
      390
      411
      407
      424
      451
      395
      431
      427
      388
      372
      386
      385
      411
      397
      389
      407
      387
      390
      379
      404
      415
      411
      403
      434
      397
      401
      400
      384
      381
      403
      423
      437
      364
      428
      373
      414
      389
      414
      462
      394
      431
      396
      404
      401
      442
      385
      410
      418
      420
      407
      431
      413
      353
      375
      397
      403
      492
      438
      419
      419
      402
      364
      407
      408
      441
      422
      412
      387
      407
      398
      410
      444
      402
      433
      418
      426
      399
      407
      407
      426
      415
      411
      386
      404
      423
      397
      405
      420
      406
      383
      435
      421
      389
      422
      408
      355
      419
      403
      398
      387
      410
      406
      433
      395
      416
      407
      402
      400
      431
      399
      398
      376
      412
      432
      405
      391
      412
      415
      414
      414
      463
      420
      435
      413
      450
      407
      406
      473
      396
      420
      383
      404
      427
      420
      431
      427
      388
      387
      483
      448
      418
      414
      385
      411
      416
      379
      442
      429
      422
      423
      422
      373
      397
      396
      403
      376
      389
      374
      461
      389
      399
      416
      410
      456
      447
      447