File: examples/example6/copper6.uxd
; (content of file: C:\Users\usmial\AppData\Local\Microsoft\Windows\INetCache\Content.Outlook\85Y1ATVD\Poudre Cu et etalon inco 01-06-21.stx, Point: Poudre Cu)
_FILEVERSION = 2
_SAMPLE = Poudre Cu et etalon inco 01-06-21
_+SAMPLE = "Poudre Cu et etalon inco 01-06-21, Poudre Cu"
_SITE =
_USER =
_GONIOMETER_CODE = 9999
; Goniometer: StressDiff, stage: Unknown
_GONIOMETER_RADIUS = 130.000
_ATTACHMENTS_CODE = 0
_BETA_FILTER = Y
_WL_UNIT = A
_WL1 = 2.10187
_WL2 = 2.10583
_WLRATIO = 0.500
_ANODE = Mn

; Data for Point: Poudre Cu, Direction: Direction 6
_DRIVE = 2THETA
_STEPTIME = 60.00
_STEPSIZE = 0.0220
_STEPMODE = S
_START = 137.894
_THETA = 76.000
_2THETA = 137.894
_KHI = -10.520
_PHI = 90.000
_X = -94.693
_Y = -392.395
_Z = -42.780
_VARDIVERGENCE = Unkn
_VARANTISCATTER = 9999
_DETECTOR = 0
; Detector type : Unknown
_DETECTORSLIT = out
_AUX1 = 0
_AUX2 = 0
_AUX3 = 0
_TEMP_RATE = -1
_TEMP_DELAY = -1
_KV = 20.00
_MA = 1.00
_RANGE_WL = 2.10187
_3DPLANE = 0
_V4_COUNTERS_MASK = 4096
_V4_DRIVES_MASK = 0
_V4_ENCODERS_MASK = 0
_COUNTS = 1
; PSD
      350
      369
      349
      358
      302
      327
      329
      357
      357
      281
      351
      330
      331
      340
      315
      282
      297
      294
      330
      320
      297
      309
      364
      315
      298
      324
      323
      345
      322
      359
      341
      317
      322
      315
      311
      336
      325
      336
      346
      335
      340
      322
      360
      339
      325
      397
      337
      316
      312
      333
      329
      355
      316
      331
      319
      323
      304
      329
      350
      364
      302
      285
      335
      369
      332
      330
      321
      350
      323
      321
      298
      292
      302
      348
      331
      341
      319
      346
      337
      374
      307
      320
      330
      349
      300
      325
      347
      327
      338
      334
      331
      347
      328
      345
      349
      343
      341
      360
      348
      314
      298
      331
      348
      356
      319
      330
      341
      352
      348
      329
      341
      333
      372
      340
      361
      337
      327
      309
      341
      358
      317
      332
      311
      344
      337
      360
      333
      333
      327
      308
      385
      376
      343
      373
      300
      361
      321
      361
      386
      346
      361
      370
      339
      341
      346
      351
      354
      339
      342
      357
      302
      355
      351
      370
      376
      337
      355
      333
      356
      333
      350
      349
      362
      341
      365
      323
      354
      362
      314
      338
      331
      311
      335
      342
      362
      313
      326
      296
      368
      345
      342
      313
      302
      302
      340
      363
      363
      328
      359
      383
      356
      326
      324
      338
      320
      340
      335
      327
      346
      329
      352
      327
      338
      324
      335
      322
      323
      302
      363
      322
      348
      300
      335
      286
      335
      343
      348
      330
      328
      351
      357
      317
      348
      348
      350
      299
      295
      334
      319
      323
      342
      342
      352
      329
      325
      333
      335
      331
      351
      344
      351
      372
      328
      359
      335
      326
      321
      329
      313
      346
      322
      352
      340
      327
      326
      331
      355
      333
      345
      356
      309
      345
      342
      340
      377
      338
      350
      357
      340
      361
      352
      343
      367
      322
      318
      352
      357
      319
      342
      366
      342
      324
      352
      340
      347
      382
      401
      354
      355
      352
      360
      384
      323
      364
      352
      333
      334
      332
      344
      353
      365
      380
      365
      375
      370
      376
      345
      371
      344
      364
      342
      418
      390
      364
      350
      366
      372
      351
      382
      389
      379
      325
      357
      353
      319
      369
      363
      376
      351
      357
      340
      384
      376
      365
      404
      345
      368
      355
      374
      355
      360
      373
      379
      389
      390
      322
      356
      365
      373
      377
      357
      374
      377
      372
      343
      372
      337
      377
      375
      376
      370
      362
      401
      357
      363
      342
      375
      360
      414
      381
      370
      377
      431
      374
      340
      387
      382
      375
      396
      385
      402
      376
      374
      366
      437
      411
      404
      397
      405
      376
      410
      423
      393
      391
      409
      388
      385
      422
      391
      427
      382
      415
      388
      401
      428
      421
      386
      438
      373
      423
      398
      381
      459
      415
      411
      381
      447
      412
      402
      442
      414
      430
      432
      455
      406
      438
      420
      399
      408
      424
      430
      390
      416
      460
      434
      447
      423
      403
      425
      424
      464
      481
      426
      395
      488
      487
      430
      445
      437
      477
      482
      471
      452
      497
      497
      435
      510
      479
      482
      534
      459
      483
      525
      501
      550
      479
      547
      550
      580
      578
      614
      608
      594
      562
      657
      633
      570
      650
      628
      631
      665
      642
      750
      699
      739
      778
      777
      765
      800
      872
      877
      870
      974
      873
     1060
     1072
     1046
     1026
     1028
     1118
     1225
     1206
     1143
     1059
     1253
     1391
     1228
     1237
     1299
     1360
     1281
     1223
     1414
     1305
     1330
     1273
     1386
     1296
     1243
     1168
     1117
     1401
     1197
     1166
     1298
     1315
     1146
     1219
      947
     1028
     1083
     1136
     1037
      954
     1081
     1073
     1032
      934
     1032
     1152
     1058
      990
     1027
     1009
     1137
     1034
     1009
      964
      987
      868
      886
      852
      843
      805
      769
      841
      748
      805
      819
      692
      773
      747
      737
      686
      685
      667
      628
      691
      631
      568
      585
      614
      586
      567
      586
      572
      558
      498
      587
      494
      504
      503
      540
      493
      468
      513
      469
      514
      492
      490
      475
      478
      486
      508
      474
      459
      473
      451
      459
      470
      455
      481
      438
      418
      494
      450
      446
      425
      432
      437
      414
      392
      417
      457
      411
      457
      397
      441
      409
      439
      426
      435
      434
      384
      404
      420
      426
      386
      406
      432
      446
      370
      412
      427
      377
      446
      378
      420
      461
      383
      445
      418
      400
      417
      405
      423
      441
      397
      406
      422
      406
      417
      425
      452
      416
      420
      427
      413
      452
      417
      428
      389
      400
      428
      425
      387
      384
      415
      383
      417
      442
      403
      374
      382
      350
      371
      374
      353
      413
      405
      380
      390
      380
      386
      396
      427
      381
      378
      375
      368
      394
      391
      355
      413
      363
      398
      389
      410
      412
      434
      394
      402
      397
      407
      368
      351
      407
      400
      398
      415
      351
      420
      387
      397
      409
      384
      372
      421
      430
      392
      396
      398
      397
      410
      417
      423
      394
      405
      402
      370
      405
      397
      408
      401
      379
      431
      365
      392
      359
      381
      361
      372
      356
      408
      354
      364
      346
      355
      373
      391
      370
      369
      380
      370
      355
      376
      391
      366
      393
      385
      406
      390
      325
      401
      362
      384
      401
      375
      434
      397
      407
      389
      403
      438
      441
      428
      379
      450
      426
      416
      400
      411
      396
      427
      392
      376
      397
      398
      417
      410
      406
      403
      394
      426
      427
      427
      433
      407
      371
      403
      384
      354
      413
      380
      434
      423
      406
      351
      401
      482
      406
      388
      406
      399
      415
      446
      384
      441
      394
      402
      409
      393
      357
      379
      425
      372
      367
      379
      392
      404
      447
      442
      383
      405
      414
      367
      400
      423
      420
      378
      387
      425
      360
      445
      393
      398
      410
      394
      410
      388
      445
      398
      407
      383
      373
      418
      398
      367
      413
      420
      399
      410
      409
      392
      410
      379
      433
      444
      389
      389
      383
      441
      387
      429
      397
      390
      421
      402
      444
      403
      375
      398
      404
      373
      409
      419
      413
      388
      350
      391
      392
      396
      417
      375
      404
      346
      396
      446
      394
      440
      369
      409
      457
      428
      400
      388
      433
      411
      405
      404
      410
      378
      421
      436
      439
      434
      438
      406
      448
      399
      391
      423
      414
      402
      413
      398
      415
      390
      434
      396
      383
      423
      399
      394
      431
      437
      386
      370
      398
      401
      395
      415
      437
      412
      440
      420
      406
      422
      383
      381
      388
      402
      430
      400
      440
      408
      394
      409
      405
      374
      421
      401
      441
      431
      389
      382
      378
      412
      417
      419
      413
      417
      403
      381
      435
      410
      420
      361
      379
      372
      413
      397
      436
      403
      425
      423
      450
      457
      426
      445
      373
      410
      418
      378
      414
      416
      409
      401
      389
      389
      451
      407
      375
      376
      464
      408
      400
      377
      411
      412
      387
      417
      423
      407
      418
      418
      355
      403
      413
      381
      366
      370
      391
      454
      404
      453
      408
      446
      443
      420
      425
      414
      394
      413
      392
      427
      406
      386
      428
      436
      448
      411
      438
      420
      427
      419
      431
      419
      386
      413
      420
      434
      421
      391
      410
      449
      411
      442
      413
      384
      394
      408
      400
      458
      443
      401
      388
      434
      426
      398
      394
      396
      399
      453
      387
      374
      449
      437
      397
      408
      412
      401
      430
      414
      467
      425
      460
      384
      395
      378
      434
      387
      421
      370
      407
      373
      418
      430
      404
      381
      419
      384
      417
      410
      392
      447
      394
      359
      346
      404
      402
      360
      416
      386
      389
      406
      398
      454
      470
      431
      404
      379
      400
      405
      424
      409
      416
      389
      416
      383
      427
      368
      393
      379
      445
      378
      406
      438
      404
      417
      391
      426
      372
      425
      402
      392
      369
      406
      388
      410
      384
      403
      446
      399
      443
      451
      403
      429
      424
      416
      386
      412
      458
      398
      415
      401
      414
      348
      431
      418
      405
      421
      413
      431
      399
      391
      454
      397
      373
      444
      417
      399
      422
      408
      438
      415
      376
      386
      406
      429
      407
      419
      468
      425
      425
      415
      455
      397
      415
      411
      379
      420
      396
      403
      389
      369
      395
      414
      412
      402
      448
      405
      404
      399
      401
      396
      400
      412
      420
      413
      418
      408
      403
      430
      391
      424
      386
      480
      392
      400
      381
      402
      425
      455
      413
      413
      443
      415
      406
      430
      437
      425
      397
      406
      430
      441
      410
      452
      379
      403
      400
      411
      458
      434
      426
      403
      420
      368
      428
      424
      378
      354
      436
      431
      427
      420
      384
      417
      409
      442
      409
      421
      434
      414
      435
      408
      372
      412
      482
      454