File: examples/example6/copper2.uxd
; (content of file: C:\Users\usmial\AppData\Local\Microsoft\Windows\INetCache\Content.Outlook\85Y1ATVD\Poudre Cu et etalon inco 01-06-21.stx, Point: Poudre Cu)
_FILEVERSION = 2
_SAMPLE = Poudre Cu et etalon inco 01-06-21
_+SAMPLE = "Poudre Cu et etalon inco 01-06-21, Poudre Cu"
_SITE =
_USER =
_GONIOMETER_CODE = 9999
; Goniometer: StressDiff, stage: Unknown
_GONIOMETER_RADIUS = 130.000
_ATTACHMENTS_CODE = 0
_BETA_FILTER = Y
_WL_UNIT = A
_WL1 = 2.10187
_WL2 = 2.10583
_WLRATIO = 0.500
_ANODE = Mn

; Data for Point: Poudre Cu, Direction: Direction 2
_DRIVE = 2THETA
_STEPTIME = 60.00
_STEPSIZE = 0.0220
_STEPMODE = S
_START = 137.894
_THETA = 76.000
_2THETA = 137.894
_KHI = -33.211
_PHI = 90.000
_X = -94.693
_Y = -392.395
_Z = -42.780
_VARDIVERGENCE = Unkn
_VARANTISCATTER = 9999
_DETECTOR = 0
; Detector type : Unknown
_DETECTORSLIT = out
_AUX1 = 0
_AUX2 = 0
_AUX3 = 0
_TEMP_RATE = -1
_TEMP_DELAY = -1
_KV = 20.00
_MA = 1.00
_RANGE_WL = 2.10187
_3DPLANE = 0
_V4_COUNTERS_MASK = 4096
_V4_DRIVES_MASK = 0
_V4_ENCODERS_MASK = 0
_COUNTS = 1
; PSD
      354
      356
      352
      336
      340
      312
      341
      341
      300
      313
      338
      316
      286
      337
      331
      351
      323
      303
      296
      337
      301
      337
      339
      317
      314
      326
      340
      320
      334
      333
      326
      383
      332
      306
      299
      295
      344
      314
      307
      328
      352
      341
      369
      325
      339
      326
      348
      316
      310
      334
      350
      343
      331
      322
      331
      340
      336
      347
      364
      352
      322
      284
      315
      331
      335
      335
      308
      335
      353
      315
      349
      314
      295
      316
      332
      356
      334
      285
      347
      349
      316
      328
      329
      334
      347
      342
      353
      318
      321
      336
      352
      341
      343
      354
      361
      357
      338
      333
      345
      359
      373
      338
      345
      374
      338
      372
      354
      318
      304
      324
      343
      329
      345
      362
      346
      347
      329
      351
      337
      345
      347
      309
      308
      319
      319
      310
      363
      350
      338
      313
      350
      349
      320
      334
      315
      341
      350
      344
      356
      347
      384
      304
      328
      350
      359
      321
      321
      331
      366
      362
      344
      352
      349
      334
      352
      349
      315
      334
      324
      318
      361
      356
      344
      320
      348
      322
      335
      351
      316
      344
      346
      328
      338
      347
      303
      378
      347
      358
      349
      360
      316
      324
      333
      339
      361
      332
      309
      332
      335
      313
      357
      307
      322
      354
      321
      345
      350
      346
      322
      356
      330
      319
      318
      309
      319
      310
      357
      346
      332
      328
      335
      334
      310
      325
      313
      346
      329
      316
      399
      331
      346
      309
      316
      320
      340
      320
      319
      342
      320
      333
      325
      337
      364
      333
      339
      297
      334
      345
      340
      316
      362
      344
      320
      375
      359
      319
      337
      344
      317
      351
      315
      338
      336
      345
      362
      326
      327
      327
      351
      356
      312
      335
      342
      353
      362
      345
      363
      343
      372
      336
      396
      350
      353
      335
      351
      361
      355
      305
      340
      371
      319
      361
      308
      358
      369
      361
      348
      348
      370
      366
      335
      341
      376
      375
      370
      332
      350
      366
      378
      362
      384
      310
      351
      388
      366
      352
      381
      371
      341
      378
      335
      366
      351
      366
      326
      352
      342
      334
      355
      380
      357
      391
      339
      339
      356
      383
      382
      331
      360
      349
      342
      357
      373
      344
      351
      404
      357
      374
      354
      348
      346
      346
      322
      366
      349
      405
      381
      363
      373
      355
      351
      371
      369
      347
      391
      391
      360
      385
      368
      358
      357
      349
      356
      372
      349
      418
      326
      360
      390
      391
      382
      377
      382
      354
      370
      358
      339
      342
      363
      398
      365
      424
      347
      374
      352
      385
      401
      398
      383
      408
      403
      416
      392
      361
      406
      392
      407
      413
      373
      365
      415
      403
      420
      403
      404
      417
      376
      387
      416
      369
      396
      404
      413
      427
      415
      390
      451
      384
      442
      420
      397
      428
      440
      381
      405
      450
      392
      435
      404
      420
      432
      436
      452
      469
      421
      458
      444
      400
      442
      458
      438
      443
      470
      467
      460
      447
      450
      449
      494
      475
      474
      496
      485
      496
      495
      468
      533
      508
      506
      487
      476
      487
      544
      552
      571
      484
      565
      546
      592
      609
      599
      581
      633
      542
      565
      633
      615
      667
      655
      761
      698
      697
      785
      697
      777
      813
      823
      835
      779
      886
      907
      887
      959
      917
      946
     1027
     1048
      991
     1034
     1068
     1127
     1120
     1044
      965
     1262
     1085
     1070
     1078
     1184
     1239
     1179
     1115
     1214
     1261
     1317
     1216
     1329
     1321
     1302
     1234
     1197
     1282
     1196
     1218
     1319
     1392
     1163
     1285
     1023
     1155
     1111
     1070
     1153
      991
     1046
     1132
     1041
      998
     1045
     1175
     1063
      970
      966
      931
      967
      983
     1041
      995
     1003
      852
      924
      843
      881
      865
      867
      744
      722
      779
      827
      778
      786
      763
      745
      705
      717
      669
      621
      681
      637
      633
      571
      672
      661
      636
      616
      608
      578
      533
      590
      609
      562
      532
      562
      540
      512
      513
      539
      470
      478
      524
      539
      463
      487
      501
      476
      498
      511
      501
      463
      458
      454
      495
      422
      456
      415
      485
      459
      434
      459
      469
      463
      450
      443
      432
      418
      442
      436
      400
      446
      434
      401
      437
      453
      363
      436
      408
      435
      389
      404
      399
      426
      380
      428
      373
      410
      415
      387
      416
      434
      396
      421
      426
      433
      449
      426
      440
      464
      409
      451
      372
      459
      338
      426
      401
      389
      406
      440
      437
      386
      400
      381
      419
      396
      415
      384
      384
      394
      399
      405
      401
      380
      421
      439
      413
      388
      424
      381
      403
      391
      411
      393
      365
      421
      387
      421
      428
      405
      414
      395
      364
      364
      410
      384
      385
      404
      386
      399
      445
      425
      361
      381
      391
      394
      409
      364
      353
      418
      360
      388
      387
      365
      359
      428
      386
      389
      354
      381
      379
      406
      370
      396
      374
      397
      372
      374
      421
      378
      385
      388
      358
      388
      413
      397
      368
      356
      368
      407
      387
      357
      366
      398
      362
      338
      408
      358
      394
      391
      399
      383
      394
      361
      377
      409
      371
      398
      379
      393
      379
      356
      394
      383
      368
      354
      376
      368
      393
      398
      404
      375
      384
      421
      397
      408
      426
      417
      391
      437
      427
      395
      397
      413
      426
      422
      419
      398
      421
      441
      446
      409
      421
      415
      427
      344
      393
      412
      391
      397
      368
      408
      416
      441
      393
      400
      359
      414
      453
      415
      355
      381
      401
      406
      400
      423
      382
      415
      363
      398
      388
      446
      387
      419
      416
      389
      430
      416
      330
      411
      406
      419
      401
      421
      382
      436
      445
      394
      403
      398
      415
      379
      373
      411
      402
      422
      418
      413
      436
      410
      395
      420
      368
      388
      391
      410
      419
      422
      426
      398
      390
      438
      409
      389
      439
      402
      402
      388
      373
      396
      406
      390
      386
      409
      432
      395
      406
      439
      440
      359
      387
      398
      425
      403
      354
      424
      395
      399
      444
      430
      407
      385
      384
      425
      377
      386
      424
      390
      388
      407
      387
      392
      398
      392
      425
      404
      400
      444
      437
      408
      389
      356
      441
      428
      424
      390
      375
      393
      397
      385
      439
      463
      458
      398
      409
      396
      387
      399
      401
      433
      400
      429
      387
      443
      432
      429
      432
      412
      412
      429
      400
      404
      421
      408
      406
      411
      384
      378
      393
      404
      400
      389
      389
      411
      432
      409
      395
      397
      403
      375
      397
      435
      419
      371
      393
      379
      374
      397
      382
      452
      401
      371
      378
      412
      408
      385
      387
      460
      415
      432
      403
      399
      419
      406
      401
      384
      439
      386
      369
      409
      422
      403
      408
      427
      427
      387
      387
      418
      433
      392
      399
      400
      399
      429
      439
      423
      382
      430
      398
      402
      380
      400
      410
      423
      404
      408
      402
      430
      441
      393
      398
      431
      390
      396
      425
      382
      418
      414
      434
      415
      383
      417
      434
      434
      370
      382
      436
      440
      391
      422
      411
      457
      441
      417
      416
      400
      420
      414
      440
      431
      417
      379
      394
      460
      446
      376
      441
      440
      416
      420
      422
      456
      407
      404
      455
      399
      420
      423
      417
      403
      399
      447
      422
      409
      417
      400
      410
      445
      420
      415
      428
      432
      373
      425
      422
      392
      445
      411
      412
      407
      397
      398
      382
      430
      431
      427
      388
      411
      406
      459
      371
      399
      415
      410
      397
      396
      427
      410
      448
      436
      423
      400
      370
      356
      455
      380
      407
      357
      426
      397
      401
      405
      395
      396
      410
      398
      402
      375
      409
      395
      429
      432
      424
      416
      385
      392
      387
      396
      436
      376
      446
      423
      425
      402
      420
      377
      395
      420
      397
      392
      400
      435
      401
      383
      421
      399
      401
      427
      419
      359
      429
      443
      417
      391
      403
      426
      412
      432
      407
      427
      413
      372
      451
      477
      378
      420
      406
      438
      386
      422
      432
      446
      446
      423
      419
      404
      426
      407
      429
      405
      455
      417
      436
      414
      457
      418
      399
      397
      367
      409
      406
      456
      406
      410
      406
      410
      409
      393
      413
      393
      429
      435
      406
      451
      393
      393
      426
      401
      439
      410
      402
      383
      429
      382
      385
      413
      439
      378
      427
      409
      418
      422
      437
      421
      401
      437
      431
      364
      421
      419
      405
      454
      408
      412
      434
      413
      396
      446
      433
      435
      399
      405
      423
      428
      433
      389
      426
      420
      421
      421
      435
      433
      402
      413
      444
      431
      438
      383
      421
      384
      414
      392
      417
      452
      429
      432
      419
      399
      404
      396
      425
      422
      466