File: examples/example6/copper3.uxd
; (content of file: C:\Users\usmial\AppData\Local\Microsoft\Windows\INetCache\Content.Outlook\85Y1ATVD\Poudre Cu et etalon inco 01-06-21.stx, Point: Poudre Cu)
_FILEVERSION = 2
_SAMPLE = Poudre Cu et etalon inco 01-06-21
_+SAMPLE = "Poudre Cu et etalon inco 01-06-21, Poudre Cu"
_SITE =
_USER =
_GONIOMETER_CODE = 9999
; Goniometer: StressDiff, stage: Unknown
_GONIOMETER_RADIUS = 130.000
_ATTACHMENTS_CODE = 0
_BETA_FILTER = Y
_WL_UNIT = A
_WL1 = 2.10187
_WL2 = 2.10583
_WLRATIO = 0.500
_ANODE = Mn

; Data for Point: Poudre Cu, Direction: Direction 3
_DRIVE = 2THETA
_STEPTIME = 60.00
_STEPSIZE = 0.0220
_STEPMODE = S
_START = 137.894
_THETA = 76.000
_2THETA = 137.894
_KHI = -28.885
_PHI = 90.000
_X = -94.693
_Y = -392.395
_Z = -42.780
_VARDIVERGENCE = Unkn
_VARANTISCATTER = 9999
_DETECTOR = 0
; Detector type : Unknown
_DETECTORSLIT = out
_AUX1 = 0
_AUX2 = 0
_AUX3 = 0
_TEMP_RATE = -1
_TEMP_DELAY = -1
_KV = 20.00
_MA = 1.00
_RANGE_WL = 2.10187
_3DPLANE = 0
_V4_COUNTERS_MASK = 4096
_V4_DRIVES_MASK = 0
_V4_ENCODERS_MASK = 0
_COUNTS = 1
; PSD
      346
      393
      357
      308
      305
      354
      308
      350
      369
      305
      329
      335
      324
      315
      318
      343
      317
      320
      342
      322
      291
      341
      347
      348
      319
      285
      303
      331
      346
      331
      331
      325
      313
      359
      330
      344
      312
      318
      311
      346
      328
      348
      314
      309
      349
      322
      314
      344
      331
      346
      353
      324
      380
      344
      339
      323
      296
      334
      312
      340
      350
      302
      318
      331
      337
      306
      360
      338
      312
      323
      324
      298
      338
      338
      323
      324
      328
      348
      306
      323
      352
      304
      317
      339
      340
      343
      311
      337
      302
      329
      372
      325
      332
      322
      348
      341
      335
      342
      370
      295
      303
      318
      360
      340
      356
      343
      359
      291
      330
      325
      320
      336
      331
      352
      340
      355
      328
      332
      335
      332
      326
      369
      346
      326
      327
      362
      330
      355
      350
      317
      341
      339
      327
      334
      300
      339
      308
      322
      339
      347
      366
      392
      349
      371
      313
      364
      341
      352
      335
      389
      328
      316
      330
      316
      343
      324
      356
      327
      308
      329
      329
      340
      326
      355
      315
      349
      349
      340
      315
      319
      380
      339
      325
      305
      324
      331
      329
      308
      370
      375
      345
      324
      328
      338
      340
      325
      332
      344
      328
      358
      323
      364
      352
      341
      307
      309
      364
      336
      324
      338
      337
      326
      371
      320
      361
      313
      325
      319
      376
      328
      333
      334
      345
      338
      323
      302
      378
      346
      347
      316
      313
      359
      313
      353
      332
      317
      321
      345
      333
      357
      334
      361
      311
      333
      348
      334
      321
      330
      315
      313
      335
      358
      310
      348
      362
      332
      331
      353
      324
      338
      335
      351
      323
      333
      394
      340
      356
      344
      346
      330
      337
      333
      358
      364
      376
      330
      378
      340
      338
      360
      376
      353
      311
      366
      359
      335
      328
      359
      349
      363
      324
      313
      381
      335
      336
      346
      406
      317
      392
      376
      369
      379
      388
      358
      327
      371
      348
      345
      379
      348
      379
      329
      306
      351
      365
      353
      384
      384
      339
      384
      357
      375
      371
      368
      330
      382
      364
      318
      398
      325
      416
      365
      358
      356
      363
      393
      364
      358
      382
      381
      347
      341
      390
      361
      343
      351
      383
      358
      389
      372
      387
      389
      356
      371
      353
      357
      361
      367
      331
      338
      370
      390
      372
      409
      358
      348
      345
      383
      389
      348
      348
      377
      375
      385
      355
      397
      372
      367
      386
      377
      397
      334
      359
      384
      350
      356
      366
      409
      338
      375
      368
      390
      369
      367
      412
      366
      375
      378
      412
      372
      400
      407
      413
      381
      404
      354
      394
      401
      388
      416
      383
      381
      401
      405
      419
      416
      386
      391
      395
      361
      427
      411
      430
      408
      409
      426
      428
      417
      435
      429
      423
      405
      409
      447
      400
      417
      430
      392
      448
      467
      371
      418
      397
      405
      423
      453
      417
      413
      426
      499
      417
      406
      423
      433
      445
      481
      407
      463
      445
      439
      483
      492
      482
      472
      497
      488
      462
      528
      458
      474
      500
      502
      495
      527
      575
      529
      561
      535
      560
      569
      615
      634
      669
      568
      616
      593
      580
      659
      637
      710
      645
      653
      791
      742
      807
      816
      854
      821
      843
      823
      841
      908
     1018
      879
      980
      992
      998
      939
     1039
     1070
     1178
     1095
     1046
      980
     1162
     1208
     1052
     1144
     1217
     1244
     1160
     1142
     1271
     1265
     1281
     1217
     1403
     1249
     1232
     1218
     1167
     1321
     1195
     1213
     1334
     1282
     1121
     1329
      959
     1082
     1084
     1081
     1112
     1023
      935
     1101
     1063
     1031
     1023
     1110
     1093
      937
     1024
      931
     1065
      992
      999
      985
      951
      897
      878
      837
      852
      834
      755
      838
      765
      784
      850
      778
      757
      759
      744
      738
      730
      672
      658
      696
      615
      654
      634
      643
      638
      661
      619
      607
      523
      527
      543
      514
      560
      504
      552
      567
      519
      506
      519
      492
      488
      499
      481
      492
      504
      530
      492
      518
      490
      474
      483
      486
      422
      475
      420
      479
      445
      472
      468
      454
      458
      485
      467
      408
      422
      433
      423
      398
      404
      411
      453
      426
      407
      452
      432
      389
      408
      421
      420
      394
      396
      408
      425
      416
      424
      379
      429
      434
      382
      413
      429
      403
      412
      410
      440
      427
      416
      408
      430
      443
      403
      390
      422
      410
      402
      401
      432
      401
      399
      418
      409
      416
      389
      421
      369
      423
      391
      439
      431
      443
      394
      393
      389
      420
      398
      431
      388
      417
      417
      411
      408
      385
      390
      441
      391
      390
      402
      430
      392
      401
      374
      366
      365
      405
      401
      386
      387
      375
      361
      369
      382
      428
      401
      369
      382
      386
      399
      383
      407
      368
      348
      370
      389
      370
      368
      405
      378
      378
      392
      418
      426
      404
      417
      414
      396
      368
      386
      421
      368
      378
      358
      396
      370
      411
      366
      415
      363
      394
      389
      391
      424
      383
      383
      354
      424
      377
      384
      353
      373
      396
      371
      350
      404
      386
      396
      383
      374
      436
      361
      429
      402
      357
      407
      366
      388
      383
      425
      370
      366
      431
      399
      368
      416
      415
      432
      435
      428
      390
      402
      383
      401
      431
      405
      394
      420
      369
      415
      396
      401
      418
      374
      398
      427
      368
      412
      396
      421
      408
      432
      391
      395
      425
      403
      360
      404
      384
      424
      426
      422
      397
      428
      411
      410
      390
      441
      425
      429
      405
      396
      416
      398
      392
      415
      396
      407
      388
      417
      406
      414
      420
      434
      423
      410
      431
      451
      397
      383
      403
      410
      400
      423
      374
      407
      404
      397
      402
      401
      445
      397
      395
      402
      401
      407
      433
      425
      375
      404
      417
      426
      434
      381
      377
      400
      414
      415
      366
      387
      371
      419
      392
      374
      417
      396
      396
      393
      442
      379
      406
      383
      387
      428
      439
      385
      423
      418
      344
      399
      403
      385
      451
      429
      371
      407
      402
      396
      436
      393
      363
      400
      384
      408
      411
      374
      374
      428
      411
      436
      444
      414
      438
      453
      417
      449
      419
      444
      402
      406
      411
      454
      414
      437
      408
      399
      410
      428
      379
      400
      392
      413
      383
      395
      425
      419
      397
      443
      401
      406
      409
      390
      429
      417
      415
      391
      430
      453
      398
      443
      412
      392
      382
      428
      400
      428
      418
      401
      409
      414
      370
      363
      376
      431
      396
      423
      400
      386
      426
      439
      437
      434
      408
      393
      399
      406
      411
      405
      392
      427
      388
      395
      380
      352
      357
      403
      430
      361
      411
      405
      388
      424
      414
      416
      421
      412
      389
      416
      417
      418
      388
      427
      397
      403
      433
      405
      444
      370
      399
      390
      375
      415
      380
      435
      437
      387
      426
      362
      448
      380
      436
      420
      407
      448
      405
      384
      373
      412
      399
      438
      401
      424
      393
      453
      426
      423
      424
      417
      433
      420
      409
      404
      425
      433
      406
      383
      411
      395
      396
      436
      420
      397
      383
      395
      424
      432
      389
      419
      420
      435
      407
      429
      458
      386
      425
      413
      417
      431
      370
      377
      460
      439
      375
      425
      406
      449
      389
      420
      364
      457
      402
      401
      441
      428
      404
      406
      432
      409
      380
      412
      401
      408
      460
      447
      388
      399
      386
      443
      421
      406
      400
      417
      434
      394
      414
      408
      401
      429
      439
      402
      429
      399
      435
      395
      379
      383
      399
      399
      417
      360
      422
      406
      467
      445
      415
      416
      396
      416
      367
      377
      412
      437
      396
      410
      355
      398
      404
      419
      374
      409
      407
      392
      409
      403
      428
      399
      440
      410
      453
      383
      432
      431
      429
      412
      420
      404
      398
      402
      444
      425
      397
      390
      429
      425
      422
      403
      416
      418
      442
      396
      409
      377
      450
      450
      421
      428
      388
      402
      390
      422
      386
      436
      377
      394
      403
      391
      420
      405
      416
      432
      406
      374
      425
      399
      435
      400
      419
      400
      437
      427
      394
      421
      389
      445
      405
      398
      398
      380
      401
      409
      392
      374
      380
      427
      390
      385
      399
      427
      395
      440
      376
      388
      404
      415
      406
      399
      442
      398
      374
      411
      437
      404
      395
      425
      395
      459
      436
      436
      436
      394
      401
      412
      420
      429
      407
      457
      420
      379
      425
      373
      397
      467
      429
      435
      422
      386
      399
      413
      440
      418
      444
      421
      389
      406
      389
      378
      402
      381
      362
      368
      403
      456
      416
      416
      398
      434
      413
      400
      418
      413
      417
      436
      426
      412
      473