File: examples/example6/copper12.uxd
; (content of file: C:\Users\usmial\AppData\Local\Microsoft\Windows\INetCache\Content.Outlook\85Y1ATVD\Poudre Cu et etalon inco 01-06-21.stx, Point: Poudre Cu)
_FILEVERSION = 2
_SAMPLE = Poudre Cu et etalon inco 01-06-21
_+SAMPLE = "Poudre Cu et etalon inco 01-06-21, Poudre Cu"
_SITE =
_USER =
_GONIOMETER_CODE = 9999
; Goniometer: StressDiff, stage: Unknown
_GONIOMETER_RADIUS = 130.000
_ATTACHMENTS_CODE = 0
_BETA_FILTER = Y
_WL_UNIT = A
_WL1 = 2.10187
_WL2 = 2.10583
_WLRATIO = 0.500
_ANODE = Mn

; Data for Point: Poudre Cu, Direction: Direction 12
_DRIVE = 2THETA
_STEPTIME = 60.00
_STEPSIZE = 0.0220
_STEPMODE = S
_START = 137.894
_THETA = 76.000
_2THETA = 137.894
_KHI = 35.264
_PHI = 90.000
_X = -94.693
_Y = -392.395
_Z = -42.780
_VARDIVERGENCE = Unkn
_VARANTISCATTER = 9999
_DETECTOR = 0
; Detector type : Unknown
_DETECTORSLIT = out
_AUX1 = 0
_AUX2 = 0
_AUX3 = 0
_TEMP_RATE = -1
_TEMP_DELAY = -1
_KV = 20.00
_MA = 1.00
_RANGE_WL = 2.10187
_3DPLANE = 0
_V4_COUNTERS_MASK = 4096
_V4_DRIVES_MASK = 0
_V4_ENCODERS_MASK = 0
_COUNTS = 1
; PSD
      298
      381
      325
      312
      356
      306
      343
      311
      335
      326
      317
      306
      335
      305
      294
      331
      345
      273
      345
      324
      334
      354
      295
      348
      320
      316
      288
      323
      330
      345
      336
      322
      302
      350
      298
      325
      344
      306
      347
      368
      332
      333
      320
      340
      334
      325
      301
      302
      318
      284
      347
      357
      329
      311
      316
      338
      295
      315
      317
      343
      312
      291
      334
      337
      338
      327
      361
      329
      320
      302
      322
      322
      325
      356
      324
      344
      346
      334
      320
      364
      339
      347
      327
      355
      339
      324
      326
      334
      327
      305
      351
      331
      329
      308
      328
      326
      357
      332
      346
      330
      308
      347
      364
      332
      320
      353
      356
      330
      336
      319
      329
      336
      333
      366
      368
      367
      349
      326
      327
      353
      343
      315
      348
      363
      344
      332
      329
      306
      351
      345
      352
      354
      293
      333
      339
      336
      346
      342
      337
      355
      326
      374
      337
      300
      351
      366
      372
      328
      331
      377
      351
      302
      289
      334
      385
      330
      320
      339
      357
      324
      399
      321
      317
      390
      360
      353
      345
      373
      323
      313
      309
      296
      317
      326
      307
      325
      318
      321
      347
      309
      312
      321
      323
      327
      347
      350
      408
      303
      330
      321
      356
      334
      326
      350
      347
      344
      317
      302
      335
      335
      361
      327
      384
      343
      317
      342
      360
      342
      355
      342
      352
      306
      331
      317
      338
      340
      317
      301
      325
      340
      351
      331
      323
      351
      336
      282
      321
      347
      346
      313
      335
      331
      321
      305
      345
      329
      303
      341
      349
      311
      318
      359
      344
      317
      361
      312
      360
      378
      337
      360
      313
      279
      330
      349
      351
      383
      347
      345
      344
      309
      388
      345
      352
      338
      345
      348
      378
      371
      356
      335
      338
      372
      405
      338
      319
      363
      350
      365
      356
      336
      341
      342
      371
      326
      390
      356
      356
      368
      341
      374
      367
      375
      381
      385
      387
      339
      365
      357
      369
      346
      339
      323
      329
      393
      374
      383
      341
      368
      371
      351
      349
      372
      368
      351
      358
      362
      359
      338
      396
      351
      365
      343
      327
      362
      383
      406
      341
      367
      384
      373
      364
      345
      398
      363
      374
      349
      389
      423
      363
      356
      381
      401
      359
      378
      368
      368
      368
      356
      367
      309
      375
      386
      383
      401
      338
      369
      354
      366
      336
      335
      369
      351
      406
      363
      364
      337
      346
      362
      398
      341
      358
      394
      351
      353
      351
      385
      404
      384
      382
      350
      377
      417
      374
      337
      396
      372
      413
      429
      414
      357
      412
      385
      400
      406
      393
      412
      428
      397
      395
      398
      426
      406
      441
      401
      394
      443
      399
      399
      406
      406
      393
      383
      405
      411
      423
      422
      403
      389
      390
      409
      416
      438
      412
      425
      395
      423
      393
      404
      402
      404
      409
      408
      431
      463
      445
      505
      428
      376
      460
      478
      442
      492
      460
      463
      455
      443
      462
      484
      455
      483
      505
      450
      482
      460
      501
      446
      526
      525
      481
      542
      487
      475
      516
      545
      558
      519
      583
      554
      531
      537
      593
      673
      661
      604
      628
      614
      625
      698
      639
      678
      661
      691
      769
      750
      774
      783
      875
      843
      829
      877
      870
      910
      947
      860
      937
     1047
      966
     1020
     1010
     1080
     1180
     1068
     1052
      921
     1086
     1165
      999
     1114
     1199
     1142
     1104
     1146
     1288
     1222
     1220
     1250
     1325
     1247
     1146
     1157
     1137
     1278
     1191
     1156
     1229
     1256
     1158
     1285
     1008
     1137
     1135
     1044
     1150
     1047
      984
     1042
     1033
      942
     1023
     1027
     1006
      959
     1008
      921
      923
      998
     1006
      952
      985
      864
      967
      868
      852
      840
      824
      823
      801
      744
      795
      715
      734
      704
      751
      727
      675
      721
      677
      675
      576
      608
      561
      582
      599
      648
      555
      591
      526
      545
      554
      508
      566
      490
      549
      521
      485
      542
      484
      468
      476
      472
      544
      494
      509
      493
      450
      440
      464
      485
      491
      453
      470
      451
      438
      448
      464
      503
      451
      463
      453
      476
      417
      438
      428
      410
      419
      445
      430
      421
      423
      477
      457
      402
      437
      404
      413
      408
      386
      380
      386
      418
      413
      448
      395
      413
      402
      381
      421
      388
      386
      429
      400
      412
      424
      390
      474
      430
      422
      407
      416
      407
      409
      388
      397
      448
      398
      422
      400
      417
      438
      455
      436
      474
      400
      422
      388
      367
      443
      418
      419
      426
      430
      415
      400
      397
      372
      406
      395
      420
      412
      360
      371
      398
      402
      330
      355
      395
      364
      394
      384
      369
      424
      426
      362
      395
      379
      381
      399
      402
      353
      342
      382
      393
      386
      392
      387
      412
      372
      391
      426
      400
      373
      377
      426
      359
      391
      402
      385
      393
      374
      395
      360
      367
      352
      395
      417
      398
      394
      389
      386
      412
      375
      389
      391
      377
      366
      362
      355
      366
      415
      358
      355
      380
      405
      391
      397
      366
      367
      422
      376
      377
      394
      387
      388
      368
      379
      383
      367
      382
      350
      397
      394
      351
      348
      390
      362
      355
      359
      380
      401
      410
      394
      430
      405
      409
      423
      413
      371
      423
      408
      409
      409
      385
      400
      407
      413
      392
      381
      414
      429
      425
      408
      434
      413
      394
      426
      416
      401
      413
      401
      435
      430
      406
      348
      391
      423
      391
      407
      422
      422
      432
      386
      386
      416
      397
      404
      397
      404
      395
      410
      394
      379
      414
      386
      364
      382
      407
      389
      417
      408
      387
      397
      414
      429
      390
      381
      398
      420
      395
      380
      375
      445
      388
      380
      418
      381
      430
      405
      414
      391
      409
      428
      396
      357
      393
      433
      397
      382
      422
      402
      394
      388
      403
      419
      404
      399
      427
      361
      450
      375
      402
      423
      370
      411
      427
      392
      402
      374
      377
      437
      402
      398
      406
      374
      370
      388
      369
      433
      402
      416
      385
      426
      418
      375
      388
      426
      387
      427
      410
      399
      409
      428
      430
      400
      411
      397
      368
      413
      433
      430
      408
      400
      413
      442
      409
      421
      414
      396
      404
      409
      434
      403
      397
      389
      407
      400
      369
      434
      432
      418
      387
      423
      429
      444
      449
      431
      429
      425
      386
      410
      417
      406
      452
      420
      395
      429
      366
      432
      377
      421
      381
      402
      418
      411
      432
      418
      428
      391
      438
      403
      399
      411
      429
      409
      451
      390
      389
      411
      408
      402
      381
      400
      392
      368
      409
      417
      385
      426
      386
      400
      373
      405
      405
      405
      380
      358
      404
      405
      464
      405
      413
      422
      431
      402
      406
      425
      451
      395
      384
      405
      432
      421
      390
      386
      401
      415
      403
      417
      357
      372
      384
      408
      397
      400
      416
      414
      411
      400
      444
      417
      414
      401
      347
      422
      389
      408
      455
      402
      400
      434
      427
      443
      425
      463
      428
      389
      434
      420
      388
      444
      398
      408
      404
      397
      441
      441
      386
      391
      388
      394
      392
      431
      395
      401
      423
      406
      396
      430
      405
      401
      444
      397
      429
      374
      399
      407
      410
      418
      372
      417
      449
      364
      418
      382
      432
      437
      410
      424
      405
      449
      402
      449
      429
      425
      380
      437
      445
      463
      374
      407
      402
      406
      388
      402
      398
      404
      421
      387
      381
      434
      413
      446
      418
      422
      481
      407
      402
      421
      432
      429
      430
      438
      417
      405
      421
      390
      437
      422
      398
      456
      414
      421
      447
      363
      393
      386
      453
      367
      418
      440
      425
      404
      407
      412
      397
      395
      415
      390
      421
      414
      417
      357
      387
      444
      381
      430
      386
      387
      391
      399
      435
      390
      413
      414
      411
      456
      461
      408
      422
      411
      416
      429
      437
      445
      389
      384
      439
      375
      388
      377
      430
      419
      412
      384
      405
      432
      405
      413
      428
      393
      407
      401
      416
      391
      412
      411
      415
      470
      420
      408
      376
      421
      429
      429
      417
      414
      374
      412
      391
      457
      407
      440
      426
      396
      399
      394
      385
      388
      430
      402
      404
      439
      423
      416
      390
      450
      416
      413
      409
      388
      438
      383
      399
      429
      402
      426
      388
      431
      392
      416
      390
      387
      434
      413
      417
      417
      433
      443
      390
      434
      428
      428
      376
      442
      468
      407
      417
      417
      405
      383
      411
      400
      440
      459
      465
      424
      430
      426
      396
      435
      439
      374
      402
      400
      380
      386
      398
      400
      446
      398
      403
      367
      388
      375
      406
      451
      402
      387
      455
      473
      453