File: examples/example6/copper13.uxd
; (content of file: C:\Users\usmial\AppData\Local\Microsoft\Windows\INetCache\Content.Outlook\85Y1ATVD\Poudre Cu et etalon inco 01-06-21.stx, Point: Poudre Cu)
_FILEVERSION = 2
_SAMPLE = Poudre Cu et etalon inco 01-06-21
_+SAMPLE = "Poudre Cu et etalon inco 01-06-21, Poudre Cu"
_SITE =
_USER =
_GONIOMETER_CODE = 9999
; Goniometer: StressDiff, stage: Unknown
_GONIOMETER_RADIUS = 130.000
_ATTACHMENTS_CODE = 0
_BETA_FILTER = Y
_WL_UNIT = A
_WL1 = 2.10187
_WL2 = 2.10583
_WLRATIO = 0.500
_ANODE = Mn

; Data for Point: Poudre Cu, Direction: Direction 13
_DRIVE = 2THETA
_STEPTIME = 60.00
_STEPSIZE = 0.0220
_STEPMODE = S
_START = 137.894
_THETA = 76.000
_2THETA = 137.894
_KHI = 39.232
_PHI = 90.000
_X = -94.693
_Y = -392.395
_Z = -42.780
_VARDIVERGENCE = Unkn
_VARANTISCATTER = 9999
_DETECTOR = 0
; Detector type : Unknown
_DETECTORSLIT = out
_AUX1 = 0
_AUX2 = 0
_AUX3 = 0
_TEMP_RATE = -1
_TEMP_DELAY = -1
_KV = 20.00
_MA = 1.00
_RANGE_WL = 2.10187
_3DPLANE = 0
_V4_COUNTERS_MASK = 4096
_V4_DRIVES_MASK = 0
_V4_ENCODERS_MASK = 0
_COUNTS = 1
; PSD
      351
      404
      349
      323
      371
      352
      310
      332
      334
      329
      308
      322
      356
      327
      321
      290
      351
      332
      310
      294
      335
      304
      342
      315
      303
      328
      380
      326
      299
      348
      307
      350
      315
      356
      349
      312
      324
      310
      329
      347
      370
      329
      311
      316
      323
      347
      348
      316
      316
      302
      321
      369
      365
      392
      332
      345
      371
      361
      356
      333
      319
      293
      319
      347
      344
      310
      309
      319
      328
      289
      327
      298
      291
      339
      301
      348
      331
      335
      324
      295
      306
      344
      366
      337
      353
      300
      340
      312
      331
      321
      320
      332
      325
      340
      317
      335
      332
      349
      357
      333
      324
      339
      347
      307
      320
      323
      370
      363
      328
      343
      357
      370
      347
      331
      352
      397
      334
      334
      320
      332
      330
      292
      342
      355
      314
      340
      341
      329
      382
      335
      356
      353
      311
      324
      344
      361
      336
      331
      345
      354
      365
      390
      370
      351
      321
      355
      367
      330
      378
      291
      337
      350
      376
      313
      365
      377
      324
      358
      314
      332
      344
      361
      310
      341
      349
      353
      337
      319
      331
      307
      322
      337
      328
      332
      340
      340
      314
      323
      328
      371
      306
      329
      324
      320
      353
      298
      354
      357
      310
      315
      333
      368
      378
      340
      327
      356
      344
      369
      363
      328
      314
      325
      341
      320
      330
      323
      328
      360
      367
      337
      328
      344
      357
      330
      330
      347
      331
      315
      341
      295
      337
      363
      327
      308
      339
      338
      341
      359
      347
      292
      333
      341
      357
      312
      315
      316
      329
      377
      337
      325
      340
      320
      357
      355
      312
      319
      335
      276
      331
      381
      334
      333
      327
      318
      349
      354
      334
      366
      358
      357
      338
      330
      345
      385
      361
      364
      379
      370
      370
      357
      350
      359
      361
      372
      355
      349
      346
      355
      342
      316
      342
      330
      349
      333
      346
      339
      399
      329
      364
      387
      334
      352
      356
      360
      367
      389
      365
      363
      401
      326
      351
      352
      373
      335
      350
      397
      378
      354
      361
      353
      342
      376
      359
      318
      332
      362
      336
      333
      352
      365
      414
      368
      410
      376
      342
      348
      372
      378
      357
      385
      373
      350
      403
      358
      394
      373
      342
      338
      340
      355
      344
      343
      396
      388
      363
      326
      372
      383
      356
      371
      331
      354
      396
      345
      360
      422
      356
      372
      333
      368
      358
      398
      377
      340
      370
      399
      354
      417
      381
      391
      402
      368
      373
      371
      391
      385
      354
      380
      395
      388
      371
      410
      373
      374
      371
      427
      400
      350
      465
      379
      396
      414
      397
      372
      424
      378
      378
      422
      372
      361
      430
      417
      405
      391
      439
      408
      391
      421
      441
      398
      420
      429
      442
      371
      384
      372
      427
      379
      413
      410
      454
      424
      418
      396
      398
      388
      417
      454
      407
      433
      437
      401
      397
      408
      407
      452
      395
      419
      453
      460
      421
      463
      457
      431
      445
      473
      445
      487
      479
      449
      532
      469
      473
      450
      489
      459
      524
      516
      538
      510
      474
      534
      539
      571
      575
      509
      538
      538
      554
      592
      595
      666
      597
      586
      658
      624
      642
      685
      692
      693
      710
      741
      796
      742
      774
      814
      908
      858
      909
      880
      901
      893
     1013
      890
      953
     1049
     1035
      988
     1009
     1069
     1162
     1030
      988
      920
     1129
     1111
     1028
     1020
     1170
     1154
     1105
     1061
     1256
     1259
     1288
     1173
     1360
     1246
     1145
     1188
     1158
     1300
     1187
     1239
     1261
     1301
     1123
     1347
     1088
     1089
     1160
     1064
     1159
      956
     1010
     1066
     1025
      917
      994
     1108
     1034
      925
      982
      948
      896
      986
     1018
      979
      985
      902
      846
      825
      869
      843
      778
      755
      769
      780
      798
      785
      720
      674
      730
      745
      676
      650
      644
      672
      605
      672
      620
      635
      587
      598
      612
      609
      560
      528
      592
      525
      557
      490
      517
      548
      518
      550
      540
      537
      504
      470
      508
      474
      469
      515
      434
      510
      494
      495
      516
      467
      456
      452
      465
      443
      471
      452
      412
      468
      430
      459
      429
      433
      431
      422
      431
      418
      416
      406
      467
      429
      413
      441
      466
      400
      420
      415
      419
      404
      408
      423
      403
      426
      406
      401
      404
      407
      346
      420
      396
      407
      435
      465
      395
      456
      406
      398
      446
      406
      399
      406
      389
      417
      440
      475
      400
      424
      425
      422
      405
      426
      443
      434
      398
      448
      406
      401
      414
      444
      442
      399
      412
      412
      390
      366
      348
      398
      371
      397
      398
      420
      399
      381
      392
      390
      388
      434
      388
      437
      371
      410
      406
      375
      354
      388
      401
      391
      383
      368
      399
      417
      395
      378
      376
      377
      372
      400
      398
      415
      417
      339
      362
      355
      397
      371
      410
      370
      397
      408
      399
      380
      422
      408
      399
      404
      358
      411
      370
      382
      399
      390
      411
      417
      380
      392
      416
      371
      400
      427
      398
      370
      378
      365
      421
      388
      387
      382
      357
      375
      346
      393
      367
      402
      369
      378
      376
      365
      384
      409
      397
      355
      403
      384
      359
      385
      367
      407
      402
      389
      388
      400
      377
      394
      393
      411
      439
      420
      389
      436
      405
      381
      422
      428
      404
      394
      417
      373
      450
      418
      407
      391
      415
      405
      406
      403
      385
      388
      413
      384
      405
      407
      405
      380
      403
      414
      399
      407
      392
      425
      397
      413
      425
      425
      413
      390
      408
      409
      398
      400
      435
      385
      395
      377
      409
      376
      388
      373
      380
      360
      416
      418
      444
      416
      398
      388
      412
      395
      387
      398
      379
      409
      404
      358
      370
      402
      413
      414
      422
      388
      429
      389
      405
      387
      420
      407
      401
      415
      425
      385
      430
      435
      395
      398
      418
      367
      438
      393
      413
      435
      375
      440
      387
      440
      394
      376
      454
      427
      432
      385
      425
      411
      418
      375
      431
      365
      395
      412
      388
      417
      423
      367
      384
      411
      376
      397
      402
      407
      435
      424
      390
      385
      378
      387
      424
      422
      443
      418
      449
      366
      434
      434
      421
      415
      436
      410
      407
      446
      389
      440
      409
      397
      397
      396
      359
      403
      444
      458
      441
      447
      413
      369
      395
      400
      417
      410
      386
      410
      421
      410
      422
      404
      419
      423
      409
      390
      444
      388
      457
      434
      402
      377
      411
      423
      427
      440
      403
      411
      415
      401
      395
      371
      410
      431
      396
      377
      409
      377
      432
      434
      392
      437
      406
      417
      432
      394
      405
      404
      398
      408
      413
      382
      387
      368
      396
      407
      402
      415
      426
      427
      379
      425
      417
      408
      375
      407
      376
      413
      440
      474
      388
      419
      395
      399
      378
      379
      403
      418
      406
      385
      398
      389
      436
      443
      359
      400
      410
      428
      392
      401
      426
      401
      388
      389
      381
      406
      377
      468
      444
      430
      396
      387
      459
      416
      439
      424
      432
      399
      385
      407
      437
      433
      409
      412
      437
      408
      437
      408
      425
      400
      402
      451
      461
      435
      398
      408
      427
      403
      461
      362
      376
      443
      433
      448
      378
      401
      429
      425
      393
      425
      433
      420
      391
      416
      391
      373
      443
      381
      405
      422
      438
      422
      428
      418
      418
      424
      421
      418
      412
      372
      414
      351
      452
      408
      414
      410
      448
      460
      429
      403
      436
      449
      438
      388
      461
      428
      408
      397
      407
      413
      427
      416
      405
      446
      403
      414
      369
      403
      414
      435
      406
      425
      407
      406
      373
      378
      404
      407
      411
      421
      393
      450
      442
      401
      392
      370
      418
      413
      390
      446
      373
      407
      435
      357
      399
      422
      380
      400
      377
      416
      430
      383
      372
      400
      422
      366
      456
      440
      408
      450
      435
      432
      397
      417
      451
      409
      417
      371
      454
      410
      419
      415
      445
      393
      397
      395
      438
      431
      436
      432
      426
      438
      393
      404
      415
      427
      418
      434
      439
      445
      430
      401
      428
      469
      442
      443
      435
      332
      434
      366
      402
      383
      379
      408
      377
      371
      410
      423
      383
      442
      450
      389
      387
      447
      394
      391
      417
      407
      414
      381
      420
      401
      396
      419
      398
      423
      438
      410
      429
      434
      429
      438
      383
      427
      448
      400
      438
      393
      434
      393
      381
      399
      403
      414
      386
      398
      399
      448
      443
      444
      429
      417
      395
      380
      437
      421
      423
      406
      465
      385
      432
      366
      408
      410
      440
      428
      442
      391
      420
      425
      443
      398
      383
      414
      442
      377
      389
      424
      405
      433
      437
      464