File: examples/example6/copper11.uxd
; (content of file: C:\Users\usmial\AppData\Local\Microsoft\Windows\INetCache\Content.Outlook\85Y1ATVD\Poudre Cu et etalon inco 01-06-21.stx, Point: Poudre Cu)
_FILEVERSION = 2
_SAMPLE = Poudre Cu et etalon inco 01-06-21
_+SAMPLE = "Poudre Cu et etalon inco 01-06-21, Poudre Cu"
_SITE =
_USER =
_GONIOMETER_CODE = 9999
; Goniometer: StressDiff, stage: Unknown
_GONIOMETER_RADIUS = 130.000
_ATTACHMENTS_CODE = 0
_BETA_FILTER = Y
_WL_UNIT = A
_WL1 = 2.10187
_WL2 = 2.10583
_WLRATIO = 0.500
_ANODE = Mn

; Data for Point: Poudre Cu, Direction: Direction 11
_DRIVE = 2THETA
_STEPTIME = 60.00
_STEPSIZE = 0.0220
_STEPMODE = S
_START = 137.894
_THETA = 76.000
_2THETA = 137.894
_KHI = 31.091
_PHI = 90.000
_X = -94.693
_Y = -392.395
_Z = -42.780
_VARDIVERGENCE = Unkn
_VARANTISCATTER = 9999
_DETECTOR = 0
; Detector type : Unknown
_DETECTORSLIT = out
_AUX1 = 0
_AUX2 = 0
_AUX3 = 0
_TEMP_RATE = -1
_TEMP_DELAY = -1
_KV = 20.00
_MA = 1.00
_RANGE_WL = 2.10187
_3DPLANE = 0
_V4_COUNTERS_MASK = 4096
_V4_DRIVES_MASK = 0
_V4_ENCODERS_MASK = 0
_COUNTS = 1
; PSD
      333
      356
      337
      354
      354
      331
      333
      323
      358
      318
      313
      317
      340
      352
      328
      331
      321
      314
      334
      307
      317
      312
      327
      300
      321
      290
      283
      299
      364
      323
      307
      336
      331
      328
      317
      334
      345
      326
      375
      342
      329
      364
      331
      308
      330
      347
      287
      276
      313
      313
      331
      329
      344
      333
      313
      409
      326
      356
      316
      340
      334
      299
      320
      325
      337
      337
      337
      323
      358
      313
      330
      336
      325
      305
      308
      371
      312
      333
      319
      285
      329
      331
      299
      334
      324
      342
      345
      333
      296
      327
      336
      317
      298
      299
      340
      346
      348
      302
      330
      307
      334
      349
      341
      334
      328
      315
      331
      330
      356
      370
      324
      365
      331
      321
      346
      352
      358
      313
      358
      327
      293
      347
      370
      326
      346
      335
      321
      348
      340
      355
      333
      354
      327
      324
      372
      339
      365
      414
      363
      327
      292
      312
      367
      354
      336
      315
      335
      339
      336
      384
      328
      322
      346
      340
      338
      349
      344
      332
      338
      342
      358
      333
      354
      381
      338
      338
      356
      320
      349
      322
      319
      346
      337
      332
      337
      338
      351
      372
      353
      329
      334
      330
      357
      322
      341
      329
      335
      338
      339
      353
      305
      333
      322
      329
      320
      344
      374
      354
      336
      342
      330
      330
      373
      366
      293
      332
      347
      366
      355
      322
      316
      333
      329
      342
      350
      326
      317
      320
      306
      311
      382
      326
      326
      327
      328
      326
      327
      316
      322
      302
      344
      364
      331
      320
      369
      321
      306
      332
      329
      331
      326
      334
      301
      332
      351
      321
      331
      347
      318
      336
      312
      323
      356
      327
      377
      363
      341
      324
      344
      350
      374
      313
      326
      331
      335
      360
      366
      327
      358
      358
      371
      313
      312
      317
      361
      374
      344
      344
      344
      358
      375
      316
      331
      366
      345
      354
      381
      359
      377
      358
      339
      345
      344
      381
      345
      349
      371
      329
      348
      353
      356
      350
      369
      375
      356
      367
      367
      324
      365
      341
      353
      311
      404
      333
      376
      363
      382
      360
      364
      367
      374
      337
      376
      378
      308
      387
      347
      352
      373
      332
      365
      373
      361
      384
      358
      359
      372
      316
      353
      340
      345
      369
      345
      355
      375
      360
      355
      406
      363
      330
      371
      343
      394
      332
      343
      432
      333
      339
      371
      322
      321
      371
      349
      379
      363
      357
      340
      373
      409
      363
      387
      369
      375
      405
      361
      372
      342
      349
      395
      394
      367
      404
      356
      403
      410
      401
      391
      363
      422
      397
      397
      379
      404
      414
      378
      350
      391
      426
      415
      388
      360
      377
      396
      452
      427
      368
      418
      390
      393
      409
      413
      425
      395
      394
      387
      403
      436
      395
      409
      457
      449
      433
      397
      434
      419
      421
      392
      409
      404
      449
      384
      432
      432
      444
      430
      442
      440
      386
      427
      446
      465
      440
      458
      433
      458
      464
      478
      443
      433
      448
      494
      468
      485
      483
      475
      482
      518
      527
      476
      504
      483
      467
      493
      519
      568
      548
      549
      515
      583
      597
      587
      589
      622
      572
      625
      640
      666
      636
      648
      677
      668
      716
      783
      729
      766
      827
      847
      828
      853
      865
      885
      872
      973
      886
     1004
     1084
      946
     1055
     1007
     1162
     1156
     1060
     1017
      951
     1171
     1172
     1113
     1092
     1222
     1209
     1136
     1174
     1247
     1252
     1323
     1272
     1318
     1271
     1220
     1125
     1122
     1296
     1218
     1212
     1226
     1265
     1169
     1333
     1013
     1110
     1133
     1080
     1092
     1062
     1053
     1104
     1169
      959
     1020
     1030
     1078
      957
      974
      900
     1003
     1008
      983
      954
      981
      868
      940
      859
      921
      870
      816
      797
      789
      818
      817
      768
      716
      735
      740
      722
      645
      694
      663
      685
      631
      609
      605
      664
      628
      662
      572
      583
      539
      525
      596
      541
      598
      526
      550
      518
      506
      512
      554
      503
      516
      512
      471
      448
      456
      487
      480
      474
      477
      467
      490
      427
      417
      451
      444
      460
      461
      427
      466
      431
      431
      426
      429
      441
      432
      409
      406
      454
      454
      392
      424
      456
      420
      430
      422
      393
      427
      432
      406
      394
      421
      385
      414
      414
      451
      410
      398
      419
      373
      431
      380
      403
      432
      421
      392
      410
      431
      457
      411
      435
      411
      393
      418
      406
      441
      406
      437
      422
      398
      420
      404
      424
      432
      394
      412
      421
      382
      372
      463
      446
      391
      404
      392
      417
      416
      404
      367
      381
      381
      394
      377
      426
      375
      423
      396
      420
      356
      428
      370
      377
      396
      375
      415
      372
      382
      419
      382
      364
      431
      406
      408
      371
      364
      396
      383
      358
      361
      358
      384
      390
      406
      354
      362
      383
      369
      399
      359
      403
      405
      407
      421
      466
      377
      411
      385
      378
      369
      390
      358
      375
      348
      393
      392
      370
      389
      389
      401
      415
      396
      358
      375
      391
      402
      342
      396
      351
      359
      418
      369
      384
      366
      361
      372
      355
      372
      404
      375
      409
      369
      425
      391
      374
      386
      383
      367
      413
      338
      379
      379
      371
      388
      386
      370
      374
      462
      412
      420
      381
      419
      427
      386
      423
      389
      403
      401
      419
      423
      414
      415
      410
      436
      367
      374
      429
      413
      428
      374
      409
      408
      438
      396
      395
      422
      386
      412
      382
      433
      418
      419
      389
      406
      390
      388
      415
      421
      402
      404
      401
      411
      414
      400
      377
      414
      409
      364
      400
      424
      403
      372
      389
      387
      374
      390
      449
      399
      427
      411
      404
      443
      414
      389
      411
      442
      405
      413
      391
      423
      386
      426
      415
      412
      435
      436
      388
      378
      404
      407
      403
      411
      407
      404
      418
      364
      371
      382
      387
      411
      392
      393
      358
      394
      409
      455
      433
      418
      436
      413
      406
      397
      388
      365
      398
      425
      411
      409
      379
      428
      361
      409
      383
      383
      391
      398
      446
      419
      426
      424
      391
      411
      436
      435
      447
      395
      421
      422
      368
      405
      388
      442
      442
      410
      389
      418
      410
      424
      402
      428
      416
      384
      415
      422
      382
      414
      432
      423
      381
      398
      408
      405
      433
      406
      422
      381
      410
      463
      409
      412
      409
      418
      398
      419
      381
      387
      426
      401
      372
      417
      386
      428
      428
      390
      387
      384
      395
      394
      408
      391
      365
      410
      379
      426
      426
      390
      420
      414
      378
      410
      410
      383
      353
      381
      409
      426
      418
      388
      415
      367
      410
      403
      368
      405
      365
      381
      399
      416
      427
      404
      357
      409
      451
      411
      408
      384
      382
      414
      427
      427
      398
      444
      385
      406
      399
      380
      429
      409
      401
      379
      424
      408
      388
      398
      423
      363
      426
      391
      441
      402
      411
      392
      410
      365
      341
      420
      386
      436
      379
      423
      405
      459
      418
      413
      406
      464
      392
      401
      409
      375
      405
      448
      396
      451
      443
      405
      425
      425
      405
      433
      412
      395
      407
      380
      409
      441
      419
      357
      378
      416
      374
      405
      436
      398
      407
      437
      403
      427
      446
      413
      413
      416
      431
      441
      433
      425
      425
      424
      397
      425
      418
      462
      458
      408
      419
      371
      444
      404
      452
      435
      426
      459
      399
      406
      386
      428
      390
      386
      399
      426
      394
      389
      386
      428
      393
      397
      358
      417
      405
      369
      409
      418
      410
      359
      372
      399
      450
      430
      452
      412
      392
      399
      398
      410
      402
      411
      400
      409
      365
      412
      387
      366
      415
      387
      399
      401
      374
      415
      382
      411
      458
      359
      399
      426
      419
      398
      423
      400
      406
      415
      400
      377
      419
      419
      431
      373
      414
      411
      415
      431
      393
      406
      407
      418
      430
      406
      415
      387
      424
      409
      352
      399
      382
      440
      440
      418
      389
      386
      412
      467
      366
      381
      405
      406
      419
      363
      420
      399
      434
      413
      410
      416
      412
      426
      416
      408
      416
      397
      419
      431
      384
      434
      385
      391
      386
      378
      385
      419
      391
      412
      392
      372
      420
      423
      418
      416
      416
      419
      412
      420
      458
      437
      440
      442
      429
      431
      441
      376
      423
      416
      407
      380
      432
      428
      413
      443
      375
      408
      396
      375
      441
      406
      398
      418
      413
      405
      416
      408
      430
      407
      384
      457
      429
      408
      451
      389
      438
      414
      447
      412
      443
      405
      430
      392
      434
      355
      418
      449
      406
      385
      409
      404
      449
      424
      408
      394
      429
      417
      410
      421
      388
      419
      396
      468
      430