File: examples/example6/copper8.uxd
; (content of file: C:\Users\usmial\AppData\Local\Microsoft\Windows\INetCache\Content.Outlook\85Y1ATVD\Poudre Cu et etalon inco 01-06-21.stx, Point: Poudre Cu)
_FILEVERSION = 2
_SAMPLE = Poudre Cu et etalon inco 01-06-21
_+SAMPLE = "Poudre Cu et etalon inco 01-06-21, Poudre Cu"
_SITE =
_USER =
_GONIOMETER_CODE = 9999
; Goniometer: StressDiff, stage: Unknown
_GONIOMETER_RADIUS = 130.000
_ATTACHMENTS_CODE = 0
_BETA_FILTER = Y
_WL_UNIT = A
_WL1 = 2.10187
_WL2 = 2.10583
_WLRATIO = 0.500
_ANODE = Mn

; Data for Point: Poudre Cu, Direction: Direction 8
_DRIVE = 2THETA
_STEPTIME = 60.00
_STEPSIZE = 0.0220
_STEPMODE = S
_START = 137.894
_THETA = 76.000
_2THETA = 137.894
_KHI = 14.963
_PHI = 90.000
_X = -94.693
_Y = -392.395
_Z = -42.780
_VARDIVERGENCE = Unkn
_VARANTISCATTER = 9999
_DETECTOR = 0
; Detector type : Unknown
_DETECTORSLIT = out
_AUX1 = 0
_AUX2 = 0
_AUX3 = 0
_TEMP_RATE = -1
_TEMP_DELAY = -1
_KV = 20.00
_MA = 1.00
_RANGE_WL = 2.10187
_3DPLANE = 0
_V4_COUNTERS_MASK = 4096
_V4_DRIVES_MASK = 0
_V4_ENCODERS_MASK = 0
_COUNTS = 1
; PSD
      361
      348
      365
      340
      356
      309
      332
      343
      348
      309
      329
      370
      325
      339
      311
      338
      344
      309
      313
      304
      308
      357
      356
      316
      315
      341
      330
      296
      307
      336
      352
      314
      311
      333
      334
      327
      333
      323
      331
      305
      300
      300
      320
      347
      335
      361
      308
      289
      312
      344
      352
      323
      351
      350
      339
      319
      328
      313
      354
      335
      349
      306
      331
      345
      362
      314
      319
      306
      346
      292
      352
      310
      286
      334
      301
      342
      351
      321
      325
      324
      334
      351
      315
      319
      318
      307
      345
      335
      297
      338
      344
      352
      314
      309
      326
      369
      363
      338
      364
      329
      336
      319
      349
      342
      362
      345
      347
      360
      349
      345
      355
      367
      344
      345
      328
      365
      354
      335
      318
      336
      330
      310
      350
      304
      313
      304
      350
      357
      366
      364
      357
      322
      320
      364
      340
      299
      343
      328
      338
      311
      361
      335
      354
      321
      331
      363
      335
      335
      345
      355
      331
      325
      386
      329
      342
      345
      380
      347
      336
      357
      342
      346
      313
      334
      390
      363
      320
      338
      321
      350
      352
      336
      327
      328
      353
      316
      314
      322
      336
      336
      304
      336
      320
      325
      320
      327
      343
      332
      329
      350
      317
      358
      345
      321
      339
      332
      361
      352
      321
      348
      333
      337
      341
      330
      318
      349
      374
      333
      345
      338
      371
      327
      336
      340
      326
      284
      321
      324
      361
      343
      331
      329
      381
      305
      348
      332
      297
      340
      337
      340
      344
      374
      365
      326
      334
      325
      315
      325
      328
      316
      353
      312
      328
      321
      350
      353
      338
      356
      330
      361
      351
      315
      329
      334
      307
      345
      339
      354
      334
      341
      344
      351
      364
      354
      350
      341
      331
      363
      365
      332
      367
      360
      347
      330
      362
      356
      318
      372
      325
      344
      344
      330
      356
      357
      349
      340
      375
      371
      359
      377
      350
      377
      342
      365
      384
      397
      353
      339
      356
      392
      350
      318
      324
      372
      353
      363
      335
      369
      348
      378
      332
      393
      355
      340
      355
      365
      340
      371
      326
      349
      366
      377
      350
      350
      350
      360
      366
      338
      334
      365
      369
      376
      415
      361
      321
      374
      363
      375
      339
      355
      382
      394
      363
      358
      341
      358
      397
      346
      373
      355
      366
      319
      396
      391
      377
      377
      361
      339
      348
      360
      382
      397
      349
      415
      372
      362
      340
      391
      390
      388
      360
      358
      402
      358
      356
      365
      396
      365
      390
      359
      362
      348
      394
      374
      408
      385
      411
      397
      451
      389
      426
      428
      427
      409
      419
      395
      403
      391
      421
      377
      392
      412
      451
      427
      391
      401
      412
      427
      388
      390
      384
      434
      427
      424
      396
      389
      418
      356
      400
      404
      435
      406
      396
      390
      411
      422
      399
      421
      418
      413
      398
      421
      446
      387
      406
      441
      411
      431
      417
      420
      416
      406
      439
      435
      451
      443
      427
      466
      407
      444
      475
      489
      472
      452
      499
      446
      486
      485
      485
      513
      520
      524
      501
      515
      541
      509
      538
      508
      487
      562
      590
      639
      622
      548
      650
      637
      607
      636
      659
      673
      682
      727
      762
      685
      739
      774
      855
      847
      799
      859
      896
      896
     1016
      911
      980
     1069
     1070
     1020
     1054
     1152
     1226
     1183
     1080
     1020
     1258
     1234
     1165
     1194
     1320
     1325
     1134
     1163
     1283
     1286
     1392
     1271
     1333
     1336
     1300
     1149
     1143
     1322
     1222
     1180
     1310
     1304
     1141
     1231
      965
     1029
     1102
     1110
     1008
      984
     1056
     1041
     1065
      958
      993
     1083
     1055
      988
     1005
      988
      968
      983
     1011
      954
      944
      847
      990
      873
      859
      804
      842
      796
      758
      758
      792
      721
      730
      718
      707
      716
      647
      642
      645
      667
      607
      603
      586
      629
      594
      604
      613
      559
      544
      506
      551
      550
      534
      484
      491
      505
      479
      520
      509
      520
      456
      462
      498
      477
      493
      480
      486
      476
      514
      478
      483
      459
      449
      426
      463
      446
      422
      456
      458
      408
      402
      450
      454
      424
      372
      431
      413
      440
      409
      418
      456
      476
      454
      392
      412
      377
      427
      422
      393
      368
      406
      412
      427
      437
      432
      431
      406
      388
      393
      401
      389
      415
      398
      422
      437
      394
      447
      413
      396
      418
      388
      424
      423
      417
      415
      398
      418
      394
      457
      408
      410
      404
      408
      380
      412
      405
      399
      430
      425
      435
      387
      407
      384
      408
      387
      372
      354
      394
      386
      408
      402
      391
      447
      371
      402
      402
      388
      401
      367
      443
      389
      362
      373
      414
      366
      397
      397
      423
      444
      393
      369
      380
      387
      383
      406
      387
      375
      414
      403
      381
      417
      388
      397
      413
      371
      364
      378
      406
      368
      393
      386
      384
      369
      417
      400
      383
      379
      415
      411
      380
      410
      351
      364
      412
      384
      397
      381
      398
      388
      392
      377
      417
      380
      391
      383
      334
      379
      387
      383
      403
      381
      366
      369
      351
      378
      435
      412
      389
      381
      334
      351
      381
      412
      426
      387
      359
      405
      373
      360
      366
      394
      414
      385
      399
      405
      424
      398
      379
      409
      464
      446
      419
      394
      386
      412
      417
      384
      400
      393
      423
      371
      397
      405
      427
      385
      391
      391
      391
      426
      403
      430
      409
      379
      394
      439
      411
      408
      413
      446
      393
      401
      441
      377
      416
      398
      419
      353
      365
      369
      403
      452
      376
      420
      411
      362
      364
      445
      390
      377
      372
      403
      384
      392
      428
      436
      410
      375
      406
      387
      391
      387
      378
      428
      389
      395
      402
      387
      369
      374
      389
      426
      371
      435
      403
      417
      404
      388
      419
      379
      395
      422
      397
      368
      412
      394
      402
      404
      366
      442
      418
      376
      413
      459
      392
      424
      423
      420
      422
      385
      430
      377
      403
      364
      377
      379
      375
      384
      416
      415
      408
      407
      394
      397
      425
      356
      410
      397
      392
      413
      380
      443
      429
      380
      433
      434
      384
      444
      380
      410
      414
      433
      436
      475
      462
      435
      472
      462
      409
      412
      431
      357
      417
      420
      387
      420
      418
      381
      385
      437
      414
      386
      434
      403
      415
      414
      428
      388
      457
      428
      437
      419
      403
      431
      405
      443
      425
      397
      396
      436
      426
      398
      412
      414
      408
      434
      391
      427
      369
      415
      402
      423
      376
      433
      428
      418
      418
      396
      430
      430
      371
      371
      391
      383
      387
      338
      358
      424
      405
      358
      395
      360
      403
      390
      399
      388
      385
      413
      421
      456
      421
      445
      396
      378
      426
      435
      444
      394
      422
      418
      443
      445
      386
      402
      390
      388
      396
      408
      365
      409
      395
      430
      409
      375
      432
      396
      412
      400
      427
      424
      374
      441
      379
      362
      377
      410
      409
      464
      433
      427
      417
      435
      394
      426
      399
      415
      413
      414
      369
      447
      456
      447
      391
      436
      407
      404
      391
      426
      426
      470
      406
      415
      467
      450
      424
      411
      431
      480
      465
      419
      407
      383
      416
      370
      367
      412
      439
      435
      441
      433
      425
      448
      391
      411
      432
      442
      350
      391
      362
      426
      417
      410
      421
      448
      420
      410
      450
      438
      422
      439
      385
      397
      393
      386
      431
      401
      368
      427
      364
      404
      419
      380
      438
      448
      414
      381
      459
      383
      391
      421
      394
      377
      431
      426
      380
      390
      457
      401
      444
      389
      421
      410
      409
      431
      439
      418
      375
      395
      381
      355
      443
      414
      384
      397
      395
      377
      387
      426
      429
      409
      426
      406
      399
      429
      404
      395
      427
      418
      408
      432
      406
      366
      415
      391
      446
      437
      414
      430
      386
      387
      420
      394
      430
      424
      387
      427
      463
      436
      382
      389
      414
      424
      410
      476
      397
      394
      426
      425
      395
      415
      378
      395
      421
      391
      412
      426
      433
      428
      415
      443
      406
      371
      397
      419
      428
      454
      427
      460
      414
      426
      441
      423
      436
      394
      381
      391
      411
      418
      421
      384
      437
      419
      398
      425
      415
      396
      427
      451
      415
      393
      382
      384
      416
      430
      395
      416
      453
      379
      418
      417
      446
      393
      375
      416
      424
      430
      410
      415
      425
      422
      415
      390
      389
      425
      425
      368
      438
      401
      453
      435
      405
      384
      422
      412
      388
      421
      433
      392
      463
      353
      400
      439
      421
      404
      435
      409
      363
      429
      400
      381
      426
      382
      380
      387
      391
      416
      399
      391
      373
      419
      425
      466
      464