File: examples/example6/copper1.uxd
; (content of file: C:\Users\usmial\AppData\Local\Microsoft\Windows\INetCache\Content.Outlook\85Y1ATVD\Poudre Cu et etalon inco 01-06-21.stx, Point: Poudre Cu)
_FILEVERSION = 2
_SAMPLE = Poudre Cu et etalon inco 01-06-21
_+SAMPLE = "Poudre Cu et etalon inco 01-06-21, Poudre Cu"
_SITE =
_USER =
_GONIOMETER_CODE = 9999
; Goniometer: StressDiff, stage: Unknown
_GONIOMETER_RADIUS = 130.000
_ATTACHMENTS_CODE = 0
_BETA_FILTER = Y
_ANODE = Mn
_WL_UNIT = A
_WL1 = 2.10187
_WL2 = 2.10583
_WLRATIO = 0.500

; Data for Point: Poudre Cu, Direction: Direction 1
_DRIVE = 2THETA
_STEPTIME = 60.00
_STEPSIZE = 0.0220
_STEPMODE = S
_START = 137.894
_THETA = 76.000
_2THETA = 137.894
_KHI = -37.267
_PHI = 90.000
_X = -94.693
_Y = -392.395
_Z = -42.780
_VARDIVERGENCE = Unkn
_VARANTISCATTER = 9999
_DETECTOR = 0
; Detector type : Unknown
_DETECTORSLIT = out
_AUX1 = 0
_AUX2 = 0
_AUX3 = 0
_TEMP_RATE = -1
_TEMP_DELAY = -1
_KV = 20.00
_MA = 1.00
_RANGE_WL = 2.10187
_3DPLANE = 0
_V4_COUNTERS_MASK = 4096
_V4_DRIVES_MASK = 0
_V4_ENCODERS_MASK = 0
_COUNTS = 1
; PSD
      364
      350
      350
      330
      308
      313
      302
      336
      359
      304
      327
      369
      328
      324
      343
      340
      324
      297
      330
      318
      313
      325
      342
      326
      295
      285
      334
      318
      343
      318
      289
      304
      341
      376
      328
      334
      349
      311
      346
      319
      322
      314
      321
      333
      337
      365
      307
      291
      374
      322
      295
      322
      337
      359
      339
      315
      348
      347
      348
      330
      293
      276
      308
      391
      306
      346
      338
      320
      325
      338
      309
      342
      327
      326
      316
      336
      328
      303
      335
      351
      320
      328
      317
      344
      326
      307
      317
      331
      348
      364
      336
      327
      360
      310
      312
      352
      360
      306
      335
      349
      328
      334
      339
      317
      342
      312
      337
      350
      334
      356
      350
      347
      366
      384
      350
      347
      332
      359
      309
      354
      331
      349
      351
      327
      341
      340
      340
      338
      314
      321
      367
      341
      328
      325
      350
      345
      353
      315
      365
      346
      318
      353
      370
      334
      325
      379
      336
      340
      348
      349
      355
      305
      362
      335
      367
      338
      341
      369
      349
      344
      345
      334
      319
      341
      314
      349
      342
      329
      344
      331
      327
      329
      313
      311
      345
      349
      354
      325
      352
      317
      353
      330
      294
      332
      314
      319
      330
      309
      359
      333
      331
      355
      347
      344
      347
      358
      337
      330
      359
      349
      370
      333
      324
      341
      374
      346
      308
      335
      353
      319
      305
      315
      352
      351
      346
      315
      325
      338
      356
      323
      313
      322
      312
      349
      336
      309
      348
      348
      327
      316
      318
      365
      317
      304
      326
      333
      350
      330
      353
      343
      304
      313
      339
      329
      320
      348
      328
      330
      337
      318
      298
      321
      348
      354
      343
      325
      360
      308
      370
      363
      328
      338
      356
      339
      351
      326
      353
      328
      385
      341
      350
      351
      351
      366
      347
      359
      348
      354
      314
      363
      341
      326
      397
      340
      334
      335
      345
      330
      363
      347
      352
      351
      364
      346
      376
      335
      368
      348
      371
      398
      374
      382
      360
      384
      388
      366
      386
      318
      375
      404
      380
      369
      356
      326
      351
      363
      378
      362
      391
      389
      382
      408
      361
      393
      357
      353
      354
      336
      366
      347
      346
      346
      359
      385
      345
      348
      367
      362
      330
      357
      343
      405
      392
      375
      377
      363
      364
      387
      379
      343
      380
      339
      410
      379
      350
      408
      331
      340
      385
      354
      371
      362
      373
      375
      354
      373
      365
      377
      389
      393
      358
      359
      395
      368
      385
      348
      366
      337
      400
      365
      405
      405
      344
      367
      378
      411
      398
      355
      463
      422
      345
      394
      378
      371
      380
      376
      395
      417
      381
      422
      410
      370
      382
      386
      414
      404
      396
      430
      441
      383
      399
      434
      454
      417
      391
      436
      423
      425
      377
      401
      419
      435
      431
      389
      409
      472
      391
      361
      429
      419
      406
      421
      373
      401
      427
      437
      431
      452
      449
      430
      465
      443
      446
      490
      450
      428
      441
      474
      494
      469
      481
      450
      445
      451
      486
      513
      499
      536
      497
      511
      516
      518
      504
      504
      590
      539
      508
      525
      576
      569
      583
      573
      586
      600
      598
      653
      642
      644
      664
      714
      718
      724
      757
      721
      759
      794
      830
      881
      847
      876
      925
      914
      956
      880
      952
     1023
      981
     1001
     1075
     1101
     1202
     1094
     1012
      979
     1155
     1069
     1047
     1076
     1242
     1229
     1083
     1117
     1294
     1202
     1359
     1226
     1351
     1253
     1194
     1199
     1189
     1286
     1201
     1204
     1307
     1277
     1082
     1310
     1008
     1045
     1121
     1046
     1092
      971
     1038
     1055
     1070
      980
     1003
     1037
      945
      976
      963
      916
     1022
      934
     1023
      949
      905
      848
      918
      858
      885
      806
      900
      739
      775
      814
      813
      778
      765
      777
      712
      791
      683
      646
      664
      660
      626
      623
      609
      623
      579
      643
      655
      607
      559
      543
      615
      558
      526
      541
      569
      525
      556
      502
      504
      535
      534
      438
      477
      497
      515
      479
      485
      477
      520
      507
      546
      471
      460
      482
      444
      401
      446
      486
      457
      486
      474
      464
      435
      399
      417
      442
      423
      456
      388
      412
      398
      421
      420
      399
      447
      401
      419
      461
      360
      394
      428
      427
      418
      416
      436
      380
      397
      409
      408
      438
      442
      410
      427
      377
      414
      424
      408
      393
      440
      407
      417
      446
      397
      414
      400
      428
      403
      432
      388
      459
      437
      378
      461
      409
      415
      372
      425
      402
      398
      417
      398
      380
      405
      389
      373
      392
      355
      382
      432
      385
      410
      424
      406
      420
      413
      385
      402
      414
      331
      413
      344
      393
      422
      371
      373
      340
      371
      381
      425
      384
      363
      418
      383
      466
      386
      403
      382
      398
      411
      372
      415
      369
      370
      352
      422
      367
      414
      378
      387
      411
      370
      359
      415
      430
      371
      379
      401
      363
      391
      428
      381
      377
      387
      415
      351
      420
      364
      396
      376
      349
      402
      378
      381
      384
      382
      366
      379
      396
      375
      400
      373
      395
      416
      401
      367
      364
      368
      442
      358
      394
      377
      390
      394
      407
      398
      392
      407
      333
      398
      365
      382
      399
      400
      420
      413
      440
      457
      420
      412
      408
      452
      399
      379
      400
      410
      385
      431
      427
      400
      410
      447
      385
      400
      417
      391
      396
      383
      394
      397
      399
      377
      396
      421
      395
      418
      414
      448
      402
      381
      412
      385
      446
      398
      362
      403
      420
      406
      404
      362
      418
      432
      386
      399
      382
      388
      386
      417
      412
      392
      381
      427
      436
      376
      394
      422
      439
      388
      412
      397
      411
      447
      398
      384
      404
      414
      409
      393
      348
      433
      403
      391
      387
      404
      414
      383
      410
      363
      395
      405
      380
      390
      407
      369
      409
      413
      401
      418
      395
      383
      396
      362
      422
      424
      422
      414
      439
      394
      422
      422
      420
      424
      446
      390
      367
      414
      400
      419
      397
      420
      395
      379
      379
      393
      410
      410
      405
      384
      399
      405
      440
      399
      440
      412
      415
      421
      402
      437
      387
      413
      458
      417
      413
      462
      415
      412
      394
      407
      403
      440
      389
      415
      401
      460
      435
      423
      415
      417
      435
      403
      400
      418
      406
      418
      380
      404
      391
      442
      474
      442
      410
      405
      354
      429
      399
      433
      402
      421
      408
      421
      393
      411
      394
      393
      416
      423
      422
      413
      367
      403
      374
      430
      386
      399
      411
      417
      428
      412
      417
      442
      383
      387
      397
      397
      437
      398
      405
      375
      436
      394
      399
      420
      384
      357
      413
      409
      447
      408
      406
      438
      431
      400
      421
      403
      415
      413
      392
      395
      406
      372
      485
      379
      406
      420
      409
      404
      379
      408
      402
      423
      380
      404
      388
      363
      439
      379
      445
      432
      418
      444
      407
      409
      390
      394
      393
      405
      431
      442
      414
      451
      381
      417
      420
      463
      420
      404
      420
      418
      413
      421
      421
      440
      391
      413
      406
      478
      411
      459
      366
      395
      423
      430
      376
      402
      483
      420
      366
      426
      438
      411
      450
      363
      382
      387
      413
      400
      447
      449
      392
      391
      448
      434
      395
      378
      416
      366
      417
      394
      388
      422
      411
      429
      399
      434
      426
      421
      422
      440
      406
      414
      414
      407
      451
      449
      392
      497
      388
      398
      409
      411
      436
      412
      392
      438
      425
      450
      462
      432
      429
      416
      417
      398
      428
      430
      415
      378
      426
      402
      424
      443
      408
      429
      406
      391
      389
      411
      379
      421
      402
      362
      452
      384
      395
      342
      411
      373
      385
      444
      397
      385
      437
      398
      426
      412
      370
      382
      383
      411
      419
      422
      380
      424
      447
      386
      389
      420
      398
      446
      402
      397
      441
      448
      448
      400
      439
      411
      430
      418
      400
      408
      410
      396
      410
      405
      416
      407
      410
      417
      408
      403
      403
      447
      406
      447
      403
      448
      389
      417
      414
      372
      431
      377
      415
      427
      416
      403
      446
      426
      400
      415
      371
      424
      414
      409
      426
      403
      435
      425
      403
      348
      450
      414
      389
      397
      407
      362
      431
      414
      423
      395
      386
      422
      404
      454
      393
      409
      408
      441
      415
      422
      425
      402
      383
      432
      435
      381
      439
      460
      397
      420
      426
      397
      417
      409
      444
      351
      404
      402
      470
      422
      397
      438
      429
      435
      433
      446
      419
      450
      476
      415
      428
      384
      390
      390
      417
      451
      395
      425
      435
      418
      445
      454
      372
      401
      376
      376
      385
      415
      370
      446
      399
      422
      424