File: examples/example6/copper9.uxd
; (content of file: C:\Users\usmial\AppData\Local\Microsoft\Windows\INetCache\Content.Outlook\85Y1ATVD\Poudre Cu et etalon inco 01-06-21.stx, Point: Poudre Cu)
_FILEVERSION = 2
_SAMPLE = Poudre Cu et etalon inco 01-06-21
_+SAMPLE = "Poudre Cu et etalon inco 01-06-21, Poudre Cu"
_SITE =
_USER =
_GONIOMETER_CODE = 9999
; Goniometer: StressDiff, stage: Unknown
_GONIOMETER_RADIUS = 130.000
_ATTACHMENTS_CODE = 0
_BETA_FILTER = Y
_WL_UNIT = A
_WL1 = 2.10187
_WL2 = 2.10583
_WLRATIO = 0.500
_ANODE = Mn

; Data for Point: Poudre Cu, Direction: Direction 9
_DRIVE = 2THETA
_STEPTIME = 60.00
_STEPSIZE = 0.0220
_STEPMODE = S
_START = 137.894
_THETA = 76.000
_2THETA = 137.894
_KHI = 21.417
_PHI = 90.000
_X = -94.693
_Y = -392.395
_Z = -42.780
_VARDIVERGENCE = Unkn
_VARANTISCATTER = 9999
_DETECTOR = 0
; Detector type : Unknown
_DETECTORSLIT = out
_AUX1 = 0
_AUX2 = 0
_AUX3 = 0
_TEMP_RATE = -1
_TEMP_DELAY = -1
_KV = 20.00
_MA = 1.00
_RANGE_WL = 2.10187
_3DPLANE = 0
_V4_COUNTERS_MASK = 4096
_V4_DRIVES_MASK = 0
_V4_ENCODERS_MASK = 0
_COUNTS = 1
; PSD
      344
      363
      364
      315
      339
      357
      330
      367
      313
      312
      306
      297
      328
      327
      331
      333
      281
      295
      324
      303
      342
      338
      312
      324
      346
      348
      315
      297
      335
      330
      343
      310
      317
      325
      311
      338
      367
      313
      330
      303
      323
      324
      316
      350
      358
      328
      319
      325
      338
      300
      340
      318
      324
      334
      322
      314
      363
      340
      329
      384
      322
      309
      355
      312
      344
      373
      353
      321
      336
      312
      326
      300
      350
      343
      333
      317
      325
      331
      309
      340
      350
      334
      317
      316
      342
      300
      334
      316
      300
      308
      372
      332
      343
      315
      334
      325
      333
      329
      323
      340
      343
      350
      339
      339
      300
      334
      322
      342
      323
      331
      356
      326
      318
      331
      366
      345
      327
      336
      337
      367
      353
      319
      327
      349
      360
      327
      363
      336
      337
      331
      325
      372
      336
      358
      329
      338
      353
      352
      346
      351
      397
      350
      339
      341
      352
      357
      319
      349
      382
      375
      302
      335
      389
      328
      385
      357
      345
      357
      301
      326
      381
      328
      324
      354
      392
      374
      360
      323
      338
      316
      324
      311
      328
      329
      322
      357
      355
      330
      330
      380
      337
      330
      334
      322
      339
      355
      350
      333
      338
      345
      334
      368
      348
      354
      331
      340
      343
      332
      326
      307
      349
      346
      353
      387
      325
      324
      329
      340
      321
      312
      345
      294
      309
      315
      320
      317
      333
      345
      332
      328
      344
      333
      332
      349
      336
      337
      329
      325
      313
      338
      368
      303
      388
      321
      321
      332
      331
      332
      329
      337
      365
      337
      309
      345
      347
      331
      326
      341
      312
      350
      353
      379
      340
      336
      339
      374
      323
      372
      315
      341
      302
      366
      345
      366
      362
      339
      380
      363
      331
      379
      359
      379
      355
      360
      372
      343
      349
      308
      313
      371
      349
      325
      335
      368
      353
      377
      339
      346
      398
      333
      325
      362
      385
      354
      387
      356
      351
      389
      381
      346
      390
      332
      346
      371
      341
      364
      328
      376
      366
      359
      353
      337
      405
      378
      350
      369
      370
      376
      342
      342
      357
      392
      357
      369
      371
      367
      381
      355
      348
      371
      340
      378
      361
      354
      364
      367
      380
      355
      346
      355
      355
      384
      337
      357
      369
      371
      367
      379
      365
      365
      364
      361
      380
      369
      407
      346
      322
      396
      370
      427
      363
      369
      392
      383
      348
      387
      377
      347
      390
      371
      360
      353
      361
      349
      443
      377
      390
      353
      389
      378
      366
      386
      388
      397
      363
      352
      416
      367
      375
      388
      404
      393
      399
      382
      402
      386
      373
      421
      356
      412
      418
      382
      383
      426
      391
      424
      368
      405
      403
      385
      428
      410
      414
      414
      384
      401
      434
      390
      381
      426
      398
      405
      432
      461
      380
      414
      432
      418
      425
      433
      416
      417
      404
      402
      418
      429
      451
      411
      418
      457
      433
      471
      410
      411
      443
      455
      418
      497
      441
      460
      472
      444
      496
      454
      489
      507
      501
      467
      480
      525
      507
      480
      467
      510
      580
      509
      512
      560
      508
      545
      563
      567
      617
      572
      576
      615
      579
      569
      630
      692
      638
      677
      749
      679
      748
      737
      821
      798
      814
      811
      834
      911
      953
      874
     1007
     1121
     1000
     1039
      948
     1154
     1148
     1086
     1085
      968
     1242
     1196
     1056
     1158
     1232
     1260
     1219
     1123
     1389
     1313
     1368
     1262
     1333
     1320
     1213
     1217
     1199
     1318
     1289
     1168
     1241
     1266
     1145
     1288
     1013
     1129
     1070
     1089
     1154
      996
     1083
     1092
     1027
      968
     1016
     1126
     1069
      996
     1025
      971
     1027
      977
     1060
      949
     1028
      924
      909
      906
      883
      860
      813
      851
      793
      781
      778
      761
      779
      719
      754
      678
      686
      700
      670
      702
      631
      603
      587
      608
      627
      628
      526
      608
      554
      568
      549
      565
      539
      533
      557
      507
      516
      537
      528
      456
      469
      475
      496
      462
      483
      490
      460
      437
      506
      441
      499
      462
      457
      456
      478
      437
      436
      498
      447
      433
      419
      492
      441
      450
      442
      441
      413
      448
      423
      429
      419
      442
      451
      427
      421
      420
      421
      434
      426
      370
      389
      419
      427
      402
      419
      391
      380
      408
      412
      388
      431
      425
      426
      445
      403
      433
      425
      420
      430
      407
      394
      416
      364
      405
      440
      409
      402
      372
      422
      438
      442
      408
      401
      395
      411
      397
      426
      375
      375
      413
      405
      435
      412
      385
      392
      381
      349
      381
      433
      403
      427
      439
      393
      410
      445
      384
      403
      437
      393
      391
      436
      405
      432
      393
      389
      420
      376
      421
      403
      398
      407
      381
      394
      408
      386
      376
      413
      389
      390
      357
      411
      399
      365
      387
      391
      405
      364
      381
      343
      389
      404
      401
      383
      379
      390
      393
      362
      401
      434
      406
      385
      415
      393
      406
      384
      366
      372
      386
      386
      371
      421
      394
      381
      341
      361
      383
      371
      375
      367
      361
      392
      389
      402
      401
      414
      401
      383
      372
      400
      399
      367
      349
      383
      368
      356
      430
      373
      375
      367
      392
      433
      382
      388
      384
      406
      411
      370
      396
      387
      440
      419
      427
      400
      376
      409
      403
      408
      412
      393
      416
      426
      398
      406
      389
      396
      388
      389
      389
      438
      414
      430
      431
      396
      408
      430
      419
      431
      430
      418
      415
      415
      413
      421
      427
      413
      422
      393
      412
      408
      414
      423
      403
      379
      395
      387
      432
      426
      378
      398
      394
      422
      411
      413
      449
      378
      392
      416
      394
      420
      437
      418
      440
      422
      390
      394
      424
      418
      389
      388
      386
      393
      411
      404
      397
      436
      415
      397
      413
      408
      412
      398
      409
      434
      428
      364
      386
      434
      415
      380
      413
      402
      405
      383
      403
      394
      364
      421
      443
      399
      446
      391
      442
      366
      374
      394
      371
      389
      430
      379
      391
      399
      393
      390
      423
      446
      392
      410
      425
      392
      397
      418
      474
      438
      395
      463
      368
      417
      437
      419
      404
      391
      420
      385
      434
      407
      388
      443
      415
      417
      415
      457
      423
      418
      413
      405
      419
      401
      415
      449
      382
      387
      416
      432
      435
      424
      398
      409
      439
      431
      393
      368
      400
      397
      445
      413
      381
      401
      403
      435
      446
      409
      382
      401
      409
      382
      415
      424
      418
      409
      416
      430
      366
      369
      400
      399
      378
      422
      409
      400
      417
      361
      400
      395
      416
      401
      376
      432
      405
      399
      391
      422
      369
      411
      405
      415
      454
      426
      383
      420
      450
      392
      423
      433
      410
      397
      462
      421
      384
      398
      430
      375
      379
      411
      425
      357
      377
      364
      391
      387
      365
      413
      448
      417
      407
      403
      407
      409
      388
      429
      438
      398
      371
      389
      406
      376
      389
      410
      398
      417
      433
      392
      418
      465
      385
      404
      430
      431
      432
      397
      417
      437
      454
      413
      435
      405
      382
      419
      391
      421
      423
      401
      413
      449
      422
      393
      411
      441
      413
      397
      427
      409
      380
      430
      397
      401
      425
      416
      448
      432
      398
      427
      422
      424
      406
      413
      404
      448
      386
      452
      428
      409
      422
      421
      459
      411
      414
      402
      382
      411
      401
      391
      382
      424
      434
      413
      419
      440
      447
      402
      434
      419
      446
      430
      398
      439
      447
      417
      406
      413
      381
      399
      401
      427
      398
      409
      383
      364
      393
      383
      413
      406
      419
      415
      393
      401
      359
      402
      383
      390
      420
      414
      390
      419
      398
      377
      343
      364
      411
      392
      396
      401
      419
      406
      397
      408
      383
      425
      417
      436
      386
      410
      422
      398
      418
      425
      388
      446
      454
      419
      425
      420
      449
      422
      449
      394
      405
      426
      422
      403
      375
      422
      464
      457
      402
      419
      437
      434
      411
      435
      442
      465
      358
      398
      429
      449
      415
      415
      424
      399
      417
      446
      407
      412
      433
      392
      439
      409
      378
      427
      404
      438
      406
      418
      409
      400
      388
      401
      360
      418
      424
      380
      435
      391
      432
      416
      386
      373
      403
      420
      377
      430
      412
      424
      425
      408
      424
      393
      399
      422
      410
      405
      412
      448
      401
      392
      407
      405
      422
      468
      395
      415
      397
      409
      427
      396
      443
      390
      489
      418
      442
      412
      456
      379
      411
      447
      435
      434
      443
      416
      409
      381
      424
      366
      425
      462
      408
      409
      406
      425
      414
      439
      384
      397
      400
      439
      394
      427
      403
      412
      399
      434
      440