File: examples/example6/copper5.uxd
; (content of file: C:\Users\usmial\AppData\Local\Microsoft\Windows\INetCache\Content.Outlook\85Y1ATVD\Poudre Cu et etalon inco 01-06-21.stx, Point: Poudre Cu)
_FILEVERSION = 2
_SAMPLE = Poudre Cu et etalon inco 01-06-21
_+SAMPLE = "Poudre Cu et etalon inco 01-06-21, Poudre Cu"
_SITE =
_USER =
_GONIOMETER_CODE = 9999
; Goniometer: StressDiff, stage: Unknown
_GONIOMETER_RADIUS = 130.000
_ATTACHMENTS_CODE = 0
_BETA_FILTER = Y
_WL_UNIT = A
_WL1 = 2.10187
_WL2 = 2.10583
_WLRATIO = 0.500
_ANODE = Mn

; Data for Point: Poudre Cu, Direction: Direction 5
_DRIVE = 2THETA
_STEPTIME = 60.00
_STEPSIZE = 0.0220
_STEPMODE = S
_START = 137.894
_THETA = 76.000
_2THETA = 137.894
_KHI = -18.435
_PHI = 90.000
_X = -94.693
_Y = -392.395
_Z = -42.780
_VARDIVERGENCE = Unkn
_VARANTISCATTER = 9999
_DETECTOR = 0
; Detector type : Unknown
_DETECTORSLIT = out
_AUX1 = 0
_AUX2 = 0
_AUX3 = 0
_TEMP_RATE = -1
_TEMP_DELAY = -1
_KV = 20.00
_MA = 1.00
_RANGE_WL = 2.10187
_3DPLANE = 0
_V4_COUNTERS_MASK = 4096
_V4_DRIVES_MASK = 0
_V4_ENCODERS_MASK = 0
_COUNTS = 1
; PSD
      347
      381
      325
      331
      323
      332
      336
      329
      312
      314
      316
      325
      294
      315
      304
      337
      340
      302
      324
      318
      334
      321
      328
      311
      309
      319
      340
      317
      332
      315
      304
      332
      306
      290
      350
      338
      342
      332
      302
      311
      307
      333
      333
      340
      316
      331
      310
      290
      324
      339
      336
      357
      334
      308
      315
      346
      312
      349
      329
      353
      347
      300
      308
      319
      337
      330
      347
      349
      300
      329
      338
      284
      344
      355
      319
      314
      321
      321
      345
      333
      325
      344
      334
      318
      347
      341
      327
      348
      278
      305
      341
      324
      326
      372
      349
      336
      345
      312
      345
      330
      332
      321
      351
      316
      378
      326
      343
      322
      368
      331
      344
      355
      332
      349
      325
      360
      333
      365
      330
      330
      301
      314
      342
      333
      337
      385
      329
      358
      335
      373
      381
      337
      325
      368
      373
      349
      348
      357
      363
      335
      341
      363
      347
      337
      348
      328
      337
      340
      344
      328
      319
      307
      364
      347
      340
      363
      323
      316
      362
      378
      333
      312
      349
      302
      326
      354
      368
      323
      348
      335
      367
      348
      324
      342
      358
      342
      336
      365
      340
      331
      343
      320
      303
      338
      360
      333
      339
      351
      319
      374
      358
      375
      365
      374
      343
      333
      349
      320
      356
      341
      317
      388
      324
      353
      324
      306
      324
      319
      296
      330
      335
      328
      352
      361
      322
      315
      308
      336
      315
      335
      329
      326
      376
      307
      349
      322
      358
      345
      298
      348
      355
      302
      344
      315
      346
      328
      322
      312
      350
      328
      351
      339
      304
      320
      354
      359
      341
      340
      326
      347
      326
      317
      334
      339
      330
      361
      346
      369
      383
      364
      378
      324
      346
      344
      362
      376
      352
      337
      363
      357
      314
      348
      327
      324
      336
      351
      341
      351
      386
      352
      329
      320
      321
      331
      347
      339
      344
      344
      352
      400
      359
      391
      375
      365
      403
      345
      361
      335
      390
      320
      358
      331
      335
      395
      364
      337
      379
      364
      394
      373
      354
      331
      358
      368
      354
      383
      348
      354
      375
      360
      388
      403
      378
      346
      346
      328
      381
      364
      375
      314
      352
      325
      351
      347
      337
      346
      358
      381
      375
      360
      378
      368
      354
      342
      362
      375
      372
      365
      348
      332
      330
      350
      354
      359
      366
      403
      362
      407
      329
      362
      379
      374
      357
      378
      332
      355
      388
      380
      376
      373
      397
      348
      392
      388
      414
      361
      399
      322
      382
      400
      372
      416
      352
      398
      386
      380
      410
      356
      446
      366
      396
      394
      387
      402
      389
      401
      372
      384
      351
      386
      408
      402
      391
      374
      412
      404
      352
      394
      409
      409
      460
      392
      424
      419
      402
      422
      429
      395
      415
      388
      450
      423
      421
      408
      420
      423
      401
      393
      398
      419
      387
      404
      385
      417
      417
      440
      408
      401
      427
      414
      473
      428
      449
      407
      468
      454
      421
      459
      439
      451
      486
      443
      508
      505
      491
      446
      523
      476
      530
      482
      485
      445
      555
      518
      583
      484
      562
      578
      511
      542
      569
      610
      588
      592
      609
      621
      619
      633
      611
      660
      697
      692
      715
      704
      743
      784
      834
      787
      803
      857
      863
      950
      966
      912
     1012
     1032
     1046
     1023
     1051
     1135
     1251
     1098
     1025
     1000
     1198
     1202
     1218
     1216
     1286
     1255
     1179
     1161
     1274
     1322
     1379
     1285
     1365
     1372
     1245
     1213
     1130
     1248
     1229
     1167
     1232
     1246
     1097
     1266
     1032
     1119
     1075
     1052
     1149
     1025
      975
     1100
     1089
      909
     1016
     1043
     1086
      956
     1049
      947
      985
      974
     1068
      986
      948
      892
      929
      916
      875
      842
      846
      837
      797
      752
      853
      751
      771
      744
      724
      709
      682
      686
      618
      695
      597
      613
      630
      602
      599
      626
      551
      586
      602
      545
      577
      555
      528
      532
      567
      504
      508
      520
      503
      494
      459
      479
      457
      496
      501
      507
      484
      453
      473
      506
      469
      472
      436
      443
      447
      463
      463
      437
      430
      457
      429
      472
      464
      385
      416
      470
      457
      448
      414
      425
      466
      408
      452
      424
      403
      417
      408
      366
      431
      414
      439
      396
      463
      434
      412
      412
      427
      369
      393
      397
      396
      377
      426
      418
      389
      378
      423
      413
      444
      440
      404
      405
      393
      396
      449
      453
      396
      407
      357
      410
      405
      439
      375
      432
      398
      434
      410
      378
      379
      468
      417
      423
      424
      427
      417
      392
      358
      378
      379
      409
      396
      415
      389
      389
      421
      380
      398
      463
      424
      394
      401
      384
      403
      393
      363
      373
      388
      375
      389
      393
      404
      388
      380
      410
      399
      416
      380
      382
      366
      411
      428
      400
      375
      376
      426
      342
      381
      401
      366
      356
      372
      399
      423
      383
      368
      384
      399
      385
      360
      387
      407
      376
      367
      432
      403
      364
      368
      403
      352
      356
      399
      370
      376
      400
      361
      372
      395
      394
      411
      396
      362
      385
      367
      382
      390
      368
      369
      376
      380
      393
      369
      443
      377
      388
      370
      410
      381
      379
      366
      405
      414
      396
      416
      406
      399
      411
      403
      425
      381
      411
      407
      427
      427
      420
      364
      462
      398
      405
      400
      375
      405
      391
      386
      407
      421
      376
      410
      373
      392
      413
      401
      414
      405
      380
      396
      417
      390
      390
      413
      385
      390
      391
      388
      393
      398
      415
      407
      394
      385
      412
      426
      361
      415
      387
      406
      420
      393
      422
      418
      403
      396
      428
      433
      390
      376
      409
      398
      379
      382
      388
      382
      364
      387
      384
      383
      447
      378
      397
      399
      393
      398
      416
      402
      396
      397
      381
      359
      411
      419
      386
      386
      402
      396
      391
      427
      372
      436
      430
      383
      385
      389
      434
      408
      403
      399
      419
      427
      396
      381
      402
      400
      380
      394
      399
      404
      401
      418
      390
      402
      397
      381
      389
      382
      405
      429
      424
      403
      437
      380
      363
      419
      385
      408
      417
      421
      381
      379
      402
      407
      457
      410
      417
      424
      416
      462
      440
      415
      418
      422
      408
      414
      410
      426
      447
      394
      402
      408
      444
      418
      414
      388
      437
      423
      404
      391
      427
      426
      433
      406
      405
      447
      428
      411
      454
      413
      400
      396
      435
      399
      418
      409
      426
      438
      403
      432
      409
      405
      394
      411
      436
      402
      398
      429
      423
      415
      394
      375
      391
      388
      400
      370
      410
      382
      439
      432
      437
      410
      411
      402
      419
      423
      373
      392
      421
      444
      418
      418
      396
      433
      429
      414
      421
      406
      400
      404
      392
      399
      402
      356
      415
      407
      382
      401
      411
      404
      346
      418
      393
      416
      385
      400
      428
      379
      443
      380
      449
      407
      402
      415
      414
      404
      391
      412
      372
      426
      437
      428
      402
      446
      431
      434
      406
      413
      443
      401
      443
      422
      400
      433
      401
      469
      398
      427
      422
      399
      423
      428
      402
      394
      358
      424
      421
      434
      408
      421
      420
      432
      440
      379
      439
      388
      421
      439
      424
      387
      383
      422
      404
      401
      396
      388
      412
      401
      410
      401
      384
      370
      404
      391
      438
      404
      397
      456
      436
      424
      419
      403
      416
      451
      392
      410
      398
      383
      423
      404
      402
      408
      406
      426
      423
      426
      432
      420
      403
      440
      434
      377
      430
      389
      431
      427
      399
      406
      424
      450
      411
      358
      407
      392
      436
      389
      392
      408
      424
      405
      417
      411
      396
      395
      407
      424
      393
      449
      395
      397
      421
      443
      421
      397
      424
      411
      432
      393
      434
      448
      403
      388
      382
      399
      424
      399
      374
      389
      434
      431
      409
      424
      438
      414
      417
      393
      448
      446
      418
      405
      433
      443
      391
      420
      411
      397
      394
      385
      414
      414
      441
      421
      403
      421
      408
      393
      392
      413
      415
      431
      401
      430
      419
      397
      427
      422
      420
      400
      420
      370
      436
      405
      423
      448
      418
      433
      390
      403
      429
      378
      400
      431
      395
      369
      418
      428
      404
      419
      399
      433
      366
      434
      425
      398
      406
      379
      402
      400
      407
      421
      386
      401
      408
      381
      465
      467
      439
      410
      405
      437
      384
      420
      431
      410
      428
      385
      417
      435
      394
      389
      418
      383
      436
      429
      442
      396
      452
      395
      413
      400
      396
      420
      394
      360
      438
      405
      428
      393
      406
      401
      390
      389
      410
      353
      406
      388
      422
      387
      407
      409
      404
      413
      413
      413
      400
      463
      463