File: examples/example6/copper10.uxd
; (content of file: C:\Users\usmial\AppData\Local\Microsoft\Windows\INetCache\Content.Outlook\85Y1ATVD\Poudre Cu et etalon inco 01-06-21.stx, Point: Poudre Cu)
_FILEVERSION = 2
_SAMPLE = Poudre Cu et etalon inco 01-06-21
_+SAMPLE = "Poudre Cu et etalon inco 01-06-21, Poudre Cu"
_SITE =
_USER =
_GONIOMETER_CODE = 9999
; Goniometer: StressDiff, stage: Unknown
_GONIOMETER_RADIUS = 130.000
_ATTACHMENTS_CODE = 0
_BETA_FILTER = Y
_WL_UNIT = A
_WL1 = 2.10187
_WL2 = 2.10583
_WLRATIO = 0.500
_ANODE = Mn

; Data for Point: Poudre Cu, Direction: Direction 10
_DRIVE = 2THETA
_STEPTIME = 60.00
_STEPSIZE = 0.0220
_STEPMODE = S
_START = 137.894
_THETA = 76.000
_2THETA = 137.894
_KHI = 26.565
_PHI = 90.000
_X = -94.693
_Y = -392.395
_Z = -42.780
_VARDIVERGENCE = Unkn
_VARANTISCATTER = 9999
_DETECTOR = 0
; Detector type : Unknown
_DETECTORSLIT = out
_AUX1 = 0
_AUX2 = 0
_AUX3 = 0
_TEMP_RATE = -1
_TEMP_DELAY = -1
_KV = 20.00
_MA = 1.00
_RANGE_WL = 2.10187
_3DPLANE = 0
_V4_COUNTERS_MASK = 4096
_V4_DRIVES_MASK = 0
_V4_ENCODERS_MASK = 0
_COUNTS = 1
; PSD
      350
      371
      361
      349
      335
      327
      331
      359
      295
      307
      371
      340
      352
      316
      339
      327
      329
      324
      324
      366
      293
      307
      353
      314
      329
      304
      349
      339
      323
      329
      307
      344
      310
      323
      343
      327
      348
      313
      362
      338
      366
      344
      332
      331
      337
      329
      349
      331
      320
      319
      310
      366
      330
      327
      333
      345
      298
      372
      334
      331
      333
      314
      358
      340
      339
      322
      350
      336
      300
      301
      289
      327
      351
      336
      333
      351
      368
      353
      317
      358
      347
      310
      355
      342
      312
      340
      334
      358
      286
      323
      350
      342
      336
      340
      348
      353
      351
      323
      364
      322
      325
      309
      342
      340
      361
      327
      326
      358
      349
      350
      365
      321
      327
      338
      339
      348
      331
      347
      342
      328
      331
      340
      356
      333
      316
      326
      356
      365
      337
      352
      344
      333
      335
      370
      342
      349
      342
      343
      380
      350
      333
      367
      348
      362
      338
      357
      365
      366
      330
      375
      368
      370
      354
      338
      332
      355
      317
      352
      324
      379
      326
      343
      333
      359
      338
      392
      373
      361
      323
      323
      319
      337
      337
      330
      325
      311
      312
      353
      343
      344
      329
      345
      338
      341
      334
      336
      334
      343
      337
      311
      355
      342
      326
      345
      354
      327
      327
      336
      347
      328
      344
      311
      325
      345
      345
      345
      310
      364
      338
      306
      380
      325
      302
      334
      337
      326
      329
      336
      326
      313
      324
      330
      299
      330
      344
      340
      346
      313
      325
      312
      325
      375
      349
      351
      341
      312
      340
      333
      342
      315
      356
      357
      310
      331
      349
      351
      337
      305
      349
      350
      312
      336
      338
      317
      301
      368
      323
      348
      364
      356
      339
      341
      395
      347
      364
      333
      334
      341
      346
      352
      367
      325
      350
      371
      372
      356
      390
      376
      343
      353
      355
      300
      342
      346
      388
      324
      367
      368
      354
      364
      358
      377
      396
      376
      391
      364
      360
      364
      349
      366
      364
      363
      350
      347
      366
      365
      350
      365
      342
      379
      351
      399
      327
      346
      372
      370
      363
      357
      333
      360
      399
      378
      385
      362
      378
      366
      392
      362
      397
      349
      348
      379
      346
      375
      381
      351
      353
      368
      386
      353
      377
      372
      342
      305
      384
      366
      352
      370
      378
      392
      320
      373
      382
      376
      342
      334
      334
      398
      390
      378
      371
      380
      344
      385
      361
      408
      385
      359
      414
      371
      358
      388
      375
      355
      372
      358
      353
      380
      366
      324
      368
      377
      361
      395
      396
      394
      433
      376
      401
      389
      407
      376
      378
      389
      426
      382
      377
      431
      408
      349
      419
      424
      395
      405
      385
      423
      406
      431
      404
      410
      414
      387
      411
      455
      366
      411
      407
      428
      413
      425
      423
      423
      379
      409
      408
      440
      427
      424
      452
      403
      440
      433
      395
      438
      455
      445
      392
      439
      450
      460
      446
      408
      420
      391
      466
      466
      470
      462
      454
      486
      498
      454
      488
      500
      470
      475
      538
      456
      484
      519
      482
      495
      482
      533
      575
      502
      561
      524
      532
      578
      603
      602
      593
      587
      649
      607
      630
      621
      668
      694
      625
      683
      776
      669
      787
      779
      802
      864
      836
      831
      852
      849
      993
      911
      945
     1085
      992
     1035
     1049
     1066
     1154
     1054
     1069
     1017
     1156
     1161
     1025
     1128
     1202
     1290
     1096
     1130
     1231
     1290
     1325
     1295
     1379
     1269
     1235
     1171
     1129
     1276
     1242
     1231
     1335
     1273
     1078
     1272
      985
     1085
     1176
     1077
     1070
     1027
     1058
     1095
     1065
     1030
     1019
     1108
     1096
      987
     1053
     1008
     1043
      967
     1045
      972
      977
      911
      941
      945
      850
      813
      867
      843
      781
      791
      734
      732
      779
      773
      723
      728
      656
      709
      642
      720
      609
      566
      639
      614
      630
      592
      587
      648
      551
      569
      608
      552
      566
      558
      507
      518
      547
      456
      496
      461
      488
      458
      471
      489
      523
      487
      477
      460
      443
      498
      465
      447
      402
      486
      461
      446
      443
      445
      435
      456
      435
      436
      399
      423
      434
      434
      440
      433
      389
      405
      435
      401
      433
      423
      427
      389
      415
      425
      382
      386
      417
      381
      402
      414
      421
      410
      400
      422
      421
      420
      408
      396
      395
      448
      427
      386
      397
      426
      417
      392
      392
      408
      444
      377
      393
      396
      403
      456
      420
      431
      413
      399
      440
      426
      401
      426
      407
      381
      389
      426
      410
      439
      405
      389
      405
      423
      368
      381
      393
      418
      421
      432
      379
      370
      409
      373
      394
      419
      386
      397
      372
      392
      437
      388
      358
      400
      401
      405
      377
      387
      409
      375
      390
      369
      376
      402
      405
      391
      402
      371
      408
      326
      382
      410
      419
      376
      387
      386
      388
      422
      403
      420
      418
      359
      411
      411
      393
      416
      369
      371
      364
      355
      366
      410
      397
      381
      391
      395
      384
      414
      406
      363
      375
      339
      382
      392
      378
      394
      372
      376
      396
      329
      378
      381
      378
      391
      409
      378
      348
      397
      384
      354
      388
      359
      356
      402
      402
      374
      404
      380
      428
      393
      390
      403
      394
      434
      435
      407
      431
      429
      442
      439
      387
      442
      410
      415
      396
      412
      402
      427
      422
      393
      400
      406
      368
      397
      379
      417
      424
      384
      391
      414
      383
      433
      414
      420
      417
      386
      393
      412
      381
      419
      404
      423
      413
      381
      410
      395
      388
      357
      442
      365
      402
      391
      405
      407
      411
      393
      432
      375
      376
      408
      419
      429
      436
      428
      407
      402
      396
      394
      423
      388
      425
      395
      446
      415
      424
      365
      422
      396
      432
      420
      427
      366
      375
      363
      427
      405
      397
      406
      412
      380
      394
      413
      417
      398
      424
      428
      436
      415
      395
      379
      394
      420
      416
      388
      374
      420
      406
      402
      410
      403
      374
      368
      450
      397
      436
      389
      467
      396
      396
      390
      372
      443
      409
      365
      424
      364
      417
      407
      394
      436
      395
      414
      420
      416
      450
      387
      400
      421
      441
      437
      426
      446
      445
      434
      406
      438
      402
      422
      422
      401
      410
      374
      405
      434
      414
      390
      440
      397
      390
      428
      383
      406
      412
      398
      455
      455
      437
      393
      411
      377
      416
      437
      394
      394
      413
      449
      407
      431
      426
      389
      416
      433
      430
      419
      425
      427
      413
      468
      402
      422
      441
      451
      380
      339
      419
      400
      438
      378
      405
      444
      399
      430
      418
      383
      409
      425
      406
      456
      399
      397
      377
      385
      382
      387
      375
      440
      410
      419
      433
      389
      417
      422
      413
      403
      401
      376
      417
      423
      379
      360
      420
      418
      416
      413
      420
      371
      445
      403
      380
      388
      386
      402
      396
      377
      390
      401
      397
      409
      387
      372
      405
      385
      384
      364
      393
      442
      412
      387
      436
      448
      414
      428
      412
      423
      412
      398
      398
      458
      420
      432
      458
      408
      447
      399
      430
      443
      440
      414
      420
      467
      441
      460
      440
      425
      406
      401
      407
      416
      382
      412
      404
      432
      386
      427
      420
      436
      396
      436
      456
      399
      411
      402
      397
      378
      442
      410
      394
      424
      409
      379
      447
      454
      429
      430
      415
      413
      407
      404
      391
      390
      417
      414
      407
      401
      387
      416
      427
      438
      408
      396
      415
      420
      393
      417
      434
      376
      421
      359
      413
      394
      431
      417
      416
      383
      350
      417
      404
      458
      410
      407
      359
      409
      352
      389
      374
      375
      341
      371
      387
      383
      405
      407
      410
      408
      397
      386
      387
      398
      399
      398
      364
      388
      443
      411
      395
      414
      419
      453
      369
      403
      372
      410
      450
      425
      434
      411
      403
      446
      455
      466
      410
      414
      421
      433
      443
      433
      434
      364
      400
      404
      415
      440
      440
      421
      421
      394
      418
      408
      442
      376
      412
      425
      404
      422
      394
      370
      411
      399
      377
      397
      445
      430
      399
      411
      418
      403
      435
      359
      430
      410
      385
      405
      411
      379
      398
      382
      413
      408
      409
      417
      441
      403
      432
      402
      406
      410
      393
      403
      409
      412
      386
      410
      399
      412
      425
      408
      357
      394
      421
      449
      418
      436
      462
      425
      435
      436
      445
      402
      439
      450
      439
      412
      445
      454
      399
      412
      410
      485
      414
      396
      399
      424
      429
      396
      407
      416
      373
      386
      393
      416
      442
      373
      374
      387
      418
      378
      397
      413
      425
      382
      432
      408
      396
      431
      425
      399
      412
      446
      415
      456