File: examples/example6/copper4.uxd
; (content of file: C:\Users\usmial\AppData\Local\Microsoft\Windows\INetCache\Content.Outlook\85Y1ATVD\Poudre Cu et etalon inco 01-06-21.stx, Point: Poudre Cu)
_FILEVERSION = 2
_SAMPLE = Poudre Cu et etalon inco 01-06-21
_+SAMPLE = "Poudre Cu et etalon inco 01-06-21, Poudre Cu"
_SITE =
_USER =
_GONIOMETER_CODE = 9999
; Goniometer: StressDiff, stage: Unknown
_GONIOMETER_RADIUS = 130.000
_ATTACHMENTS_CODE = 0
_BETA_FILTER = Y
_WL_UNIT = A
_WL1 = 2.10187
_WL2 = 2.10583
_WLRATIO = 0.500
_ANODE = Mn

; Data for Point: Poudre Cu, Direction: Direction 4
_DRIVE = 2THETA
_STEPTIME = 60.00
_STEPSIZE = 0.0220
_STEPMODE = S
_START = 137.894
_THETA = 76.000
_2THETA = 137.894
_KHI = -24.095
_PHI = 90.000
_X = -94.693
_Y = -392.395
_Z = -42.780
_VARDIVERGENCE = Unkn
_VARANTISCATTER = 9999
_DETECTOR = 0
; Detector type : Unknown
_DETECTORSLIT = out
_AUX1 = 0
_AUX2 = 0
_AUX3 = 0
_TEMP_RATE = -1
_TEMP_DELAY = -1
_KV = 20.00
_MA = 1.00
_RANGE_WL = 2.10187
_3DPLANE = 0
_V4_COUNTERS_MASK = 4096
_V4_DRIVES_MASK = 0
_V4_ENCODERS_MASK = 0
_COUNTS = 1
; PSD
      352
      377
      346
      385
      316
      298
      317
      343
      315
      300
      314
      333
      349
      293
      336
      318
      297
      341
      284
      346
      324
      311
      300
      327
      291
      313
      328
      309
      311
      352
      315
      321
      351
      315
      360
      327
      329
      292
      288
      306
      329
      333
      328
      307
      311
      337
      314
      345
      313
      318
      334
      357
      337
      331
      345
      353
      338
      342
      357
      345
      340
      305
      339
      337
      329
      356
      300
      306
      310
      326
      376
      327
      301
      336
      327
      298
      347
      333
      291
      345
      339
      289
      328
      339
      309
      304
      327
      332
      310
      375
      342
      326
      327
      307
      330
      336
      323
      344
      344
      312
      337
      317
      353
      339
      322
      329
      336
      314
      355
      320
      331
      348
      368
      351
      344
      315
      374
      316
      338
      323
      314
      339
      355
      346
      337
      339
      329
      345
      327
      341
      319
      342
      346
      329
      347
      363
      318
      353
      351
      312
      362
      330
      352
      336
      367
      359
      363
      330
      323
      357
      344
      328
      365
      367
      339
      348
      349
      338
      353
      338
      385
      333
      309
      364
      349
      348
      315
      333
      356
      352
      325
      359
      313
      366
      352
      343
      361
      328
      360
      307
      348
      344
      319
      346
      343
      318
      325
      318
      345
      347
      326
      349
      325
      348
      352
      329
      363
      361
      358
      327
      366
      335
      354
      332
      363
      313
      360
      332
      312
      363
      341
      293
      347
      337
      337
      348
      308
      333
      313
      316
      329
      333
      306
      349
      361
      316
      282
      320
      341
      321
      359
      331
      320
      342
      350
      351
      330
      322
      345
      302
      365
      333
      330
      344
      323
      375
      359
      335
      342
      351
      310
      315
      305
      302
      325
      340
      313
      317
      356
      345
      322
      338
      365
      349
      359
      337
      378
      328
      346
      367
      362
      331
      347
      345
      373
      349
      342
      318
      313
      357
      333
      339
      372
      356
      390
      352
      388
      383
      396
      326
      359
      344
      366
      359
      377
      381
      340
      329
      387
      331
      342
      346
      336
      380
      353
      345
      340
      345
      347
      288
      354
      349
      318
      348
      391
      364
      357
      364
      362
      386
      380
      390
      387
      376
      345
      362
      348
      362
      390
      363
      385
      335
      373
      322
      358
      365
      388
      373
      325
      348
      357
      377
      379
      356
      354
      382
      358
      357
      372
      358
      349
      336
      317
      394
      387
      388
      366
      345
      390
      357
      350
      361
      383
      399
      412
      412
      363
      350
      377
      391
      366
      373
      376
      354
      370
      357
      373
      367
      365
      355
      355
      391
      401
      383
      371
      354
      430
      345
      404
      388
      428
      421
      411
      358
      379
      418
      360
      423
      436
      393
      430
      408
      396
      415
      436
      423
      391
      422
      395
      390
      375
      399
      374
      444
      351
      370
      400
      391
      434
      399
      452
      364
      397
      422
      405
      444
      419
      390
      420
      465
      420
      418
      391
      466
      426
      434
      476
      433
      442
      500
      426
      496
      482
      437
      466
      458
      437
      472
      467
      426
      500
      458
      488
      531
      513
      470
      510
      520
      495
      502
      497
      560
      544
      468
      558
      528
      572
      519
      530
      600
      612
      592
      604
      565
      650
      643
      607
      638
      683
      742
      661
      697
      780
      717
      739
      794
      838
      835
      834
      903
      862
      899
      979
      897
      978
     1051
     1045
     1021
     1088
     1174
     1275
     1079
     1043
     1002
     1207
     1229
     1115
     1119
     1280
     1297
     1197
     1128
     1270
     1295
     1330
     1238
     1340
     1259
     1234
     1144
     1118
     1284
     1207
     1196
     1295
     1276
     1149
     1306
      993
     1100
     1049
     1111
     1102
     1028
     1013
     1050
     1068
      998
      983
     1074
     1063
      965
      998
      919
     1035
      967
     1029
     1029
      946
      856
      901
      871
      830
      860
      785
      871
      778
      733
      804
      779
      716
      727
      750
      745
      706
      669
      641
      658
      613
      595
      572
      629
      598
      615
      563
      573
      575
      562
      558
      484
      555
      514
      548
      538
      528
      479
      531
      439
      460
      441
      498
      496
      482
      481
      483
      476
      478
      428
      523
      447
      412
      479
      421
      428
      462
      415
      450
      428
      472
      477
      451
      419
      413
      387
      465
      470
      425
      397
      396
      442
      424
      383
      413
      383
      410
      424
      384
      403
      385
      402
      404
      394
      401
      417
      382
      401
      394
      395
      438
      391
      469
      401
      397
      377
      411
      410
      440
      412
      434
      405
      421
      431
      383
      427
      384
      423
      418
      416
      419
      406
      420
      416
      416
      419
      413
      359
      367
      431
      408
      390
      393
      414
      444
      409
      387
      418
      386
      394
      410
      415
      433
      387
      402
      419
      370
      431
      395
      390
      380
      406
      402
      383
      384
      375
      380
      410
      367
      394
      396
      389
      372
      399
      395
      390
      357
      380
      394
      370
      385
      387
      392
      397
      411
      361
      378
      399
      391
      378
      408
      360
      414
      390
      370
      402
      423
      438
      363
      370
      392
      394
      368
      374
      351
      400
      370
      348
      387
      383
      382
      386
      412
      366
      408
      404
      374
      378
      367
      335
      383
      386
      386
      351
      352
      403
      418
      407
      363
      368
      410
      384
      372
      367
      352
      367
      394
      430
      356
      417
      382
      380
      379
      381
      376
      448
      394
      409
      426
      404
      416
      401
      371
      386
      422
      389
      384
      409
      380
      404
      439
      398
      419
      396
      398
      383
      395
      412
      387
      420
      415
      366
      417
      398
      404
      402
      395
      401
      401
      392
      381
      431
      399
      404
      417
      406
      394
      400
      360
      451
      393
      392
      417
      414
      436
      424
      426
      401
      442
      429
      428
      410
      451
      426
      437
      386
      380
      378
      360
      392
      412
      417
      368
      386
      392
      406
      404
      405
      374
      365
      428
      406
      383
      380
      383
      385
      431
      398
      397
      393
      400
      420
      391
      421
      404
      408
      397
      389
      415
      401
      415
      380
      399
      386
      370
      411
      391
      455
      379
      396
      421
      415
      390
      354
      378
      400
      394
      370
      410
      385
      403
      405
      407
      427
      391
      397
      424
      336
      425
      406
      416
      405
      413
      424
      417
      392
      412
      417
      385
      420
      391
      450
      454
      469
      405
      401
      451
      428
      413
      442
      453
      379
      421
      394
      425
      392
      418
      424
      400
      405
      422
      349
      455
      433
      402
      424
      422
      430
      428
      373
      397
      457
      405
      423
      429
      407
      437
      429
      402
      427
      382
      401
      377
      436
      447
      430
      436
      374
      397
      374
      385
      422
      395
      417
      386
      448
      381
      378
      397
      411
      385
      385
      407
      409
      403
      380
      444
      411
      409
      399
      370
      401
      394
      387
      366
      441
      388
      417
      439
      398
      428
      398
      377
      450
      395
      438
      384
      370
      430
      428
      408
      408
      439
      415
      387
      382
      426
      427
      407
      437
      398
      399
      371
      411
      397
      403
      405
      412
      403
      425
      406
      387
      398
      372
      385
      379
      440
      433
      422
      420
      377
      431
      440
      444
      442
      437
      403
      416
      460
      412
      455
      406
      416
      422
      407
      377
      431
      419
      400
      406
      396
      444
      437
      423
      445
      412
      394
      443
      405
      416
      393
      440
      417
      390
      417
      417
      404
      418
      438
      404
      444
      418
      380
      421
      412
      430
      389
      408
      410
      435
      429
      398
      441
      442
      403
      425
      410
      405
      460
      346
      420
      377
      416
      436
      379
      399
      404
      432
      380
      395
      416
      386
      413
      415
      431
      430
      385
      447
      382
      391
      421
      419
      394
      412
      455
      412
      387
      448
      385
      389
      427
      440
      422
      409
      406
      370
      367
      344
      417
      386
      405
      389
      422
      395
      372
      388
      415
      384
      397
      423
      393
      409
      394
      419
      398
      413
      347
      404
      401
      376
      361
      396
      382
      430
      432
      433
      425
      405
      387
      426
      427
      416
      392
      416
      400
      395
      395
      442
      403
      432
      433
      449
      406
      397
      425
      398
      441
      401
      395
      442
      436
      426
      404
      390
      396
      448
      407
      422
      411
      453
      436
      453
      428
      433
      406
      420
      393
      393
      422
      425
      444
      445
      414
      398
      403
      365
      394
      398
      389
      405
      407
      388
      399
      430
      404
      418
      372
      440
      418
      425
      441
      401
      411
      427
      428
      359
      383
      387
      387
      455
      413
      408
      408
      380
      424
      366
      434
      440
      433
      404
      456
      430
      391
      417
      383
      404
      370
      413
      440
      430
      359
      431
      421
      420
      396
      382
      450
      396
      399
      366
      412
      412
      421
      385
      422
      367
      434
      386
      424
      406
      443
      406
      393
      408
      422
      369
      432
      399
      449
      401
      457
      452